subno,fnoa_order,format,counterbal,condition,trial_n,phase,include,cue_1,cue_2,cue_3,cue_4,prob_outcome_1,outcome,resp_given,resp_norm_corr,resp_time,resp_rewar
s1,2,disease,1,FnoA,57.0,Test,1,1.0,1.0,0.0,0.0,1.0,,2.0,1.0,1.05,
s1,2,disease,1,FnoA,58.0,Test,1,0.0,1.0,0.0,0.0,0.75,,2.0,1.0,1.035,
s1,2,disease,1,FnoA,59.0,Test,1,1.0,0.0,1.0,0.0,0.5,,1.0,,0.876,
s1,2,disease,1,FnoA,60.0,Test,1,0.0,0.0,1.0,0.0,0.25,,2.0,2.0,1.383,
s1,2,disease,1,FnoA,61.0,Test,1,0.0,0.0,0.0,1.0,0.25,,1.0,2.0,0.695,
s1,2,disease,1,FnoA,62.0,Test,1,1.0,1.0,0.0,1.0,0.75,,1.0,1.0,1.844,
s1,2,disease,1,FnoA,63.0,Test,1,0.0,1.0,1.0,0.0,0.5,,1.0,,0.893,
s1,2,disease,1,FnoA,64.0,Test,1,0.0,1.0,0.0,1.0,0.5,,2.0,,1.111,
s1,2,disease,1,FnoA,65.0,Test,1,0.0,0.0,1.0,1.0,0.0,,1.0,2.0,1.268,
s1,2,disease,1,FnoA,67.0,Test,1,0.0,1.0,1.0,1.0,0.25,,2.0,2.0,2.143,
s1,2,disease,1,FnoA,68.0,Test,1,1.0,0.0,0.0,0.0,0.75,,1.0,1.0,1.018,
s1,2,disease,1,FnoA,69.0,Test,1,1.0,1.0,1.0,0.0,0.75,,2.0,1.0,1.294,
s1,2,disease,1,FnoA,70.0,Test,1,1.0,0.0,0.0,1.0,0.5,,2.0,,0.833,
s10,1,weather,2,FnoA,57.0,Test,1,1.0,1.0,0.0,1.0,0.75,,1.0,1.0,0.853,
s10,1,weather,2,FnoA,58.0,Test,1,0.0,1.0,1.0,0.0,0.5,,2.0,,0.979,
s10,1,weather,2,FnoA,59.0,Test,1,0.0,0.0,1.0,0.0,0.25,,2.0,2.0,1.54,
s10,1,weather,2,FnoA,60.0,Test,1,1.0,0.0,0.0,0.0,0.75,,1.0,1.0,0.755,
s10,1,weather,2,FnoA,61.0,Test,1,1.0,0.0,1.0,1.0,0.25,,2.0,2.0,1.905,
s10,1,weather,2,FnoA,62.0,Test,1,0.0,1.0,1.0,1.0,0.25,,1.0,2.0,2.978,
s10,1,weather,2,FnoA,63.0,Test,1,1.0,1.0,0.0,0.0,1.0,,1.0,1.0,1.322,
s10,1,weather,2,FnoA,64.0,Test,1,0.0,1.0,0.0,0.0,0.75,,2.0,1.0,2.027,
s10,1,weather,2,FnoA,65.0,Test,1,0.0,1.0,0.0,1.0,0.5,,2.0,,0.968,
s10,1,weather,2,FnoA,66.0,Test,1,1.0,1.0,1.0,0.0,0.75,,1.0,1.0,1.188,
s10,1,weather,2,FnoA,67.0,Test,1,0.0,0.0,1.0,1.0,0.0,,2.0,2.0,2.3,
s10,1,weather,2,FnoA,68.0,Test,1,1.0,0.0,1.0,0.0,0.5,,1.0,,2.06,
s10,1,weather,2,FnoA,69.0,Test,1,1.0,0.0,0.0,1.0,0.5,,1.0,,1.921,
s10,1,weather,2,FnoA,70.0,Test,1,0.0,0.0,0.0,1.0,0.25,,2.0,2.0,1.222,
s11,2,weather,3,FnoA,57.0,Test,1,1.0,1.0,0.0,0.0,1.0,,2.0,1.0,8.777,
s11,2,weather,3,FnoA,58.0,Test,1,0.0,1.0,0.0,0.0,0.75,,1.0,1.0,5.921,
s11,2,weather,3,FnoA,59.0,Test,1,1.0,0.0,1.0,0.0,0.5,,2.0,,4.906,
s11,2,weather,3,FnoA,60.0,Test,1,0.0,0.0,1.0,0.0,0.25,,2.0,2.0,1.383,
s11,2,weather,3,FnoA,61.0,Test,1,0.0,0.0,0.0,1.0,0.25,,2.0,2.0,2.094,
s11,2,weather,3,FnoA,62.0,Test,1,1.0,1.0,0.0,1.0,0.75,,2.0,1.0,1.736,
s11,2,weather,3,FnoA,63.0,Test,1,0.0,1.0,1.0,0.0,0.5,,1.0,,1.208,
s11,2,weather,3,FnoA,64.0,Test,1,0.0,1.0,0.0,1.0,0.5,,1.0,,0.657,
s11,2,weather,3,FnoA,65.0,Test,1,0.0,0.0,1.0,1.0,0.0,,2.0,2.0,1.076,
s11,2,weather,3,FnoA,66.0,Test,1,1.0,0.0,1.0,1.0,0.25,,2.0,2.0,2.872,
s11,2,weather,3,FnoA,67.0,Test,1,0.0,1.0,1.0,1.0,0.25,,1.0,2.0,1.986,
s11,2,weather,3,FnoA,68.0,Test,1,1.0,0.0,0.0,0.0,0.75,,2.0,1.0,1.724,
s11,2,weather,3,FnoA,69.0,Test,1,1.0,1.0,1.0,0.0,0.75,,1.0,1.0,5.951,
s11,2,weather,3,FnoA,70.0,Test,1,1.0,0.0,0.0,1.0,0.5,,2.0,,2.61,
s12,1,disease,4,FnoA,57.0,Test,1,1.0,1.0,0.0,1.0,0.75,,2.0,1.0,1.069,
s12,1,disease,4,FnoA,58.0,Test,1,0.0,1.0,1.0,0.0,0.5,,2.0,,2.617,
s12,1,disease,4,FnoA,59.0,Test,1,0.0,0.0,1.0,0.0,0.25,,1.0,2.0,0.852,
s12,1,disease,4,FnoA,60.0,Test,1,1.0,0.0,0.0,0.0,0.75,,2.0,1.0,0.912,
s12,1,disease,4,FnoA,61.0,Test,1,1.0,0.0,1.0,1.0,0.25,,2.0,2.0,0.774,
s12,1,disease,4,FnoA,62.0,Test,1,0.0,1.0,1.0,1.0,0.25,,2.0,2.0,0.919,
s12,1,disease,4,FnoA,63.0,Test,1,1.0,1.0,0.0,0.0,1.0,,1.0,1.0,0.561,
s12,1,disease,4,FnoA,64.0,Test,1,0.0,1.0,0.0,0.0,0.75,,1.0,1.0,0.6,
s12,1,disease,4,FnoA,65.0,Test,1,0.0,1.0,0.0,1.0,0.5,,1.0,,0.708,
s12,1,disease,4,FnoA,66.0,Test,1,1.0,1.0,1.0,0.0,0.75,,2.0,1.0,0.665,
s12,1,disease,4,FnoA,67.0,Test,1,0.0,0.0,1.0,1.0,0.0,,1.0,2.0,0.722,
s12,1,disease,4,FnoA,68.0,Test,1,1.0,0.0,1.0,0.0,0.5,,2.0,,1.163,
s12,1,disease,4,FnoA,69.0,Test,1,1.0,0.0,0.0,1.0,0.5,,2.0,,0.482,
s12,1,disease,4,FnoA,70.0,Test,1,0.0,0.0,0.0,1.0,0.25,,1.0,2.0,0.689,
s13,2,disease,1,FnoA,57.0,Test,1,1.0,1.0,0.0,0.0,1.0,,1.0,1.0,10.315,
s13,2,disease,1,FnoA,58.0,Test,1,0.0,1.0,0.0,0.0,0.75,,1.0,1.0,3.903,
s13,2,disease,1,FnoA,59.0,Test,1,1.0,0.0,1.0,0.0,0.5,,2.0,,1.925,
s13,2,disease,1,FnoA,60.0,Test,1,0.0,0.0,1.0,0.0,0.25,,1.0,2.0,6.08,
s13,2,disease,1,FnoA,61.0,Test,1,0.0,0.0,0.0,1.0,0.25,,2.0,2.0,1.279,
s13,2,disease,1,FnoA,62.0,Test,1,1.0,1.0,0.0,1.0,0.75,,2.0,1.0,3.061,
s13,2,disease,1,FnoA,63.0,Test,1,0.0,1.0,1.0,0.0,0.5,,1.0,,4.257,
s13,2,disease,1,FnoA,64.0,Test,1,0.0,1.0,0.0,1.0,0.5,,2.0,,2.945,
s13,2,disease,1,FnoA,65.0,Test,1,0.0,0.0,1.0,1.0,0.0,,1.0,2.0,4.86,
s13,2,disease,1,FnoA,66.0,Test,1,1.0,0.0,1.0,1.0,0.25,,2.0,2.0,4.407,
s13,2,disease,1,FnoA,67.0,Test,1,0.0,1.0,1.0,1.0,0.25,,1.0,2.0,3.061,
s13,2,disease,1,FnoA,68.0,Test,1,1.0,0.0,0.0,0.0,0.75,,1.0,1.0,4.541,
s13,2,disease,1,FnoA,69.0,Test,1,1.0,1.0,1.0,0.0,0.75,,1.0,1.0,1.631,
s13,2,disease,1,FnoA,70.0,Test,1,1.0,0.0,0.0,1.0,0.5,,2.0,,6.711,
s14,2,disease,1,FnoA,57.0,Test,1,1.0,1.0,0.0,0.0,1.0,,1.0,1.0,1.527,
s14,2,disease,1,FnoA,58.0,Test,1,0.0,1.0,0.0,0.0,0.75,,1.0,1.0,1.117,
s14,2,disease,1,FnoA,59.0,Test,1,1.0,0.0,1.0,0.0,0.5,,2.0,,0.989,
s14,2,disease,1,FnoA,60.0,Test,1,0.0,0.0,1.0,0.0,0.25,,2.0,2.0,0.829,
s14,2,disease,1,FnoA,61.0,Test,1,0.0,0.0,0.0,1.0,0.25,,2.0,2.0,0.861,
s14,2,disease,1,FnoA,62.0,Test,1,1.0,1.0,0.0,1.0,0.75,,2.0,1.0,1.106,
s14,2,disease,1,FnoA,63.0,Test,1,0.0,1.0,1.0,0.0,0.5,,1.0,,1.818,
s14,2,disease,1,FnoA,64.0,Test,1,0.0,1.0,0.0,1.0,0.5,,1.0,,0.777,
s14,2,disease,1,FnoA,65.0,Test,1,0.0,0.0,1.0,1.0,0.0,,2.0,2.0,0.723,
s14,2,disease,1,FnoA,66.0,Test,1,1.0,0.0,1.0,1.0,0.25,,1.0,2.0,1.775,
s14,2,disease,1,FnoA,67.0,Test,1,0.0,1.0,1.0,1.0,0.25,,2.0,2.0,1.101,
s14,2,disease,1,FnoA,68.0,Test,1,1.0,0.0,0.0,0.0,0.75,,2.0,1.0,0.791,
s14,2,disease,1,FnoA,69.0,Test,1,1.0,1.0,1.0,0.0,0.75,,1.0,1.0,0.748,
s14,2,disease,1,FnoA,70.0,Test,1,1.0,0.0,0.0,1.0,0.5,,1.0,,1.49,
s15,1,weather,2,FnoA,57.0,Test,1,1.0,1.0,0.0,1.0,0.75,,2.0,1.0,5.092,
s15,1,weather,2,FnoA,58.0,Test,1,0.0,1.0,1.0,0.0,0.5,,2.0,,6.922,
s15,1,weather,2,FnoA,59.0,Test,1,0.0,0.0,1.0,0.0,0.25,,2.0,2.0,1.495,
s15,1,weather,2,FnoA,60.0,Test,1,1.0,0.0,0.0,0.0,0.75,,2.0,1.0,1.218,
s15,1,weather,2,FnoA,61.0,Test,1,1.0,0.0,1.0,1.0,0.25,,1.0,2.0,1.004,
s15,1,weather,2,FnoA,62.0,Test,1,0.0,1.0,1.0,1.0,0.25,,2.0,2.0,3.131,
s15,1,weather,2,FnoA,63.0,Test,1,1.0,1.0,0.0,0.0,1.0,,2.0,1.0,1.101,
s15,1,weather,2,FnoA,64.0,Test,1,0.0,1.0,0.0,0.0,0.75,,2.0,1.0,2.191,
s15,1,weather,2,FnoA,65.0,Test,1,0.0,1.0,0.0,1.0,0.5,,2.0,,1.539,
s15,1,weather,2,FnoA,66.0,Test,1,1.0,1.0,1.0,0.0,0.75,,1.0,1.0,1.081,
s15,1,weather,2,FnoA,67.0,Test,1,0.0,0.0,1.0,1.0,0.0,,1.0,2.0,7.049,
s15,1,weather,2,FnoA,68.0,Test,1,1.0,0.0,1.0,0.0,0.5,,1.0,,0.896,
s15,1,weather,2,FnoA,69.0,Test,1,1.0,0.0,0.0,1.0,0.5,,2.0,,2.245,
s15,1,weather,2,FnoA,70.0,Test,1,0.0,0.0,0.0,1.0,0.25,,2.0,2.0,1.016,
s16,2,weather,3,FnoA,57.0,Test,1,1.0,1.0,0.0,0.0,1.0,,2.0,1.0,25.434,
s16,2,weather,3,FnoA,58.0,Test,1,0.0,1.0,0.0,0.0,0.75,,2.0,1.0,6.147,
s16,2,weather,3,FnoA,59.0,Test,1,1.0,0.0,1.0,0.0,0.5,,1.0,,1.451,
s16,2,weather,3,FnoA,60.0,Test,1,0.0,0.0,1.0,0.0,0.25,,1.0,2.0,2.798,
s16,2,weather,3,FnoA,61.0,Test,1,0.0,0.0,0.0,1.0,0.25,,2.0,2.0,2.004,
s16,2,weather,3,FnoA,62.0,Test,1,1.0,1.0,0.0,1.0,0.75,,1.0,1.0,2.818,
s16,2,weather,3,FnoA,63.0,Test,1,0.0,1.0,1.0,0.0,0.5,,2.0,,2.435,
s16,2,weather,3,FnoA,64.0,Test,1,0.0,1.0,0.0,1.0,0.5,,2.0,,2.855,
s16,2,weather,3,FnoA,65.0,Test,1,0.0,0.0,1.0,1.0,0.0,,1.0,2.0,2.161,
s16,2,weather,3,FnoA,66.0,Test,1,1.0,0.0,1.0,1.0,0.25,,2.0,2.0,3.542,
s16,2,weather,3,FnoA,67.0,Test,1,0.0,1.0,1.0,1.0,0.25,,1.0,2.0,2.755,
s16,2,weather,3,FnoA,68.0,Test,1,1.0,0.0,0.0,0.0,0.75,,2.0,1.0,1.9,
s16,2,weather,3,FnoA,69.0,Test,1,1.0,1.0,1.0,0.0,0.75,,2.0,1.0,1.998,
s16,2,weather,3,FnoA,70.0,Test,1,1.0,0.0,0.0,1.0,0.5,,1.0,,2.668,
s17,1,disease,4,FnoA,57.0,Test,1,1.0,1.0,0.0,1.0,0.75,,2.0,1.0,1.786,
s17,1,disease,4,FnoA,58.0,Test,1,0.0,1.0,1.0,0.0,0.5,,2.0,,2.607,
s17,1,disease,4,FnoA,59.0,Test,1,0.0,0.0,1.0,0.0,0.25,,2.0,2.0,2.222,
s17,1,disease,4,FnoA,60.0,Test,1,1.0,0.0,0.0,0.0,0.75,,1.0,1.0,2.986,
s17,1,disease,4,FnoA,61.0,Test,1,1.0,0.0,1.0,1.0,0.25,,2.0,2.0,1.301,
s17,1,disease,4,FnoA,62.0,Test,1,0.0,1.0,1.0,1.0,0.25,,2.0,2.0,1.037,
s17,1,disease,4,FnoA,63.0,Test,1,1.0,1.0,0.0,0.0,1.0,,2.0,1.0,2.374,
s17,1,disease,4,FnoA,64.0,Test,1,0.0,1.0,0.0,0.0,0.75,,1.0,1.0,0.815,
s17,1,disease,4,FnoA,65.0,Test,1,0.0,1.0,0.0,1.0,0.5,,1.0,,0.688,
s17,1,disease,4,FnoA,66.0,Test,1,1.0,1.0,1.0,0.0,0.75,,2.0,1.0,2.492,
s17,1,disease,4,FnoA,67.0,Test,1,0.0,0.0,1.0,1.0,0.0,,2.0,2.0,1.02,
s17,1,disease,4,FnoA,68.0,Test,1,1.0,0.0,1.0,0.0,0.5,,1.0,,0.605,
s17,1,disease,4,FnoA,69.0,Test,1,1.0,0.0,0.0,1.0,0.5,,2.0,,3.318,
s17,1,disease,4,FnoA,70.0,Test,1,0.0,0.0,0.0,1.0,0.25,,1.0,2.0,0.668,
s18,1,weather,2,FnoA,57.0,Test,1,1.0,1.0,0.0,1.0,0.75,,1.0,1.0,3.839,
s18,1,weather,2,FnoA,58.0,Test,1,0.0,1.0,1.0,0.0,0.5,,2.0,,3.736,
s18,1,weather,2,FnoA,59.0,Test,1,0.0,0.0,1.0,0.0,0.25,,2.0,2.0,1.08,
s18,1,weather,2,FnoA,60.0,Test,1,1.0,0.0,0.0,0.0,0.75,,1.0,1.0,4.562,
s18,1,weather,2,FnoA,61.0,Test,1,1.0,0.0,1.0,1.0,0.25,,2.0,2.0,4.963,
s18,1,weather,2,FnoA,62.0,Test,1,0.0,1.0,1.0,1.0,0.25,,2.0,2.0,6.032,
s18,1,weather,2,FnoA,63.0,Test,1,1.0,1.0,0.0,0.0,1.0,,2.0,1.0,7.6,
s18,1,weather,2,FnoA,64.0,Test,1,0.0,1.0,0.0,0.0,0.75,,2.0,1.0,4.744,
s18,1,weather,2,FnoA,65.0,Test,1,0.0,1.0,0.0,1.0,0.5,,2.0,,6.418,
s18,1,weather,2,FnoA,66.0,Test,1,1.0,1.0,1.0,0.0,0.75,,2.0,1.0,2.671,
s18,1,weather,2,FnoA,67.0,Test,1,0.0,0.0,1.0,1.0,0.0,,1.0,2.0,5.159,
s18,1,weather,2,FnoA,68.0,Test,1,1.0,0.0,1.0,0.0,0.5,,2.0,,4.691,
s18,1,weather,2,FnoA,69.0,Test,1,1.0,0.0,0.0,1.0,0.5,,1.0,,2.429,
s18,1,weather,2,FnoA,70.0,Test,1,0.0,0.0,0.0,1.0,0.25,,2.0,2.0,5.797,
s19,2,weather,3,FnoA,57.0,Test,1,1.0,1.0,0.0,0.0,1.0,,1.0,1.0,3.172,
s19,2,weather,3,FnoA,58.0,Test,1,0.0,1.0,0.0,0.0,0.75,,1.0,1.0,2.166,
s19,2,weather,3,FnoA,59.0,Test,1,1.0,0.0,1.0,0.0,0.5,,2.0,,1.562,
s19,2,weather,3,FnoA,60.0,Test,1,0.0,0.0,1.0,0.0,0.25,,1.0,2.0,0.923,
s19,2,weather,3,FnoA,61.0,Test,1,0.0,0.0,0.0,1.0,0.25,,2.0,2.0,0.677,
s19,2,weather,3,FnoA,62.0,Test,1,1.0,1.0,0.0,1.0,0.75,,2.0,1.0,1.144,
s19,2,weather,3,FnoA,63.0,Test,1,0.0,1.0,1.0,0.0,0.5,,2.0,,1.018,
s19,2,weather,3,FnoA,64.0,Test,1,0.0,1.0,0.0,1.0,0.5,,1.0,,1.16,
s19,2,weather,3,FnoA,65.0,Test,1,0.0,0.0,1.0,1.0,0.0,,1.0,2.0,1.39,
s19,2,weather,3,FnoA,66.0,Test,1,1.0,0.0,1.0,1.0,0.25,,2.0,2.0,0.978,
s19,2,weather,3,FnoA,67.0,Test,1,0.0,1.0,1.0,1.0,0.25,,2.0,2.0,0.797,
s19,2,weather,3,FnoA,68.0,Test,1,1.0,0.0,0.0,0.0,0.75,,1.0,1.0,1.033,
s19,2,weather,3,FnoA,69.0,Test,1,1.0,1.0,1.0,0.0,0.75,,1.0,1.0,1.867,
s19,2,weather,3,FnoA,70.0,Test,1,1.0,0.0,0.0,1.0,0.5,,1.0,,1.395,
s2,1,weather,2,FnoA,57.0,Test,1,1.0,1.0,0.0,1.0,0.75,,2.0,1.0,2.44,
s2,1,weather,2,FnoA,58.0,Test,1,0.0,1.0,1.0,0.0,0.5,,2.0,,2.406,
s2,1,weather,2,FnoA,59.0,Test,1,0.0,0.0,1.0,0.0,0.25,,1.0,2.0,1.031,
s2,1,weather,2,FnoA,60.0,Test,1,1.0,0.0,0.0,0.0,0.75,,1.0,1.0,1.24,
s2,1,weather,2,FnoA,61.0,Test,1,1.0,0.0,1.0,1.0,0.25,,2.0,2.0,1.114,
s2,1,weather,2,FnoA,62.0,Test,1,0.0,1.0,1.0,1.0,0.25,,2.0,2.0,1.275,
s2,1,weather,2,FnoA,63.0,Test,1,1.0,1.0,0.0,0.0,1.0,,1.0,1.0,1.594,
s2,1,weather,2,FnoA,64.0,Test,1,0.0,1.0,0.0,0.0,0.75,,1.0,1.0,1.052,
s2,1,weather,2,FnoA,65.0,Test,1,0.0,1.0,0.0,1.0,0.5,,2.0,,1.58,
s2,1,weather,2,FnoA,66.0,Test,1,1.0,1.0,1.0,0.0,0.75,,2.0,1.0,1.679,
s2,1,weather,2,FnoA,67.0,Test,1,0.0,0.0,1.0,1.0,0.0,,1.0,2.0,1.314,
s2,1,weather,2,FnoA,68.0,Test,1,1.0,0.0,1.0,0.0,0.5,,2.0,,1.427,
s2,1,weather,2,FnoA,69.0,Test,1,1.0,0.0,0.0,1.0,0.5,,2.0,,0.912,
s2,1,weather,2,FnoA,70.0,Test,1,0.0,0.0,0.0,1.0,0.25,,2.0,2.0,1.37,
s20,1,disease,4,FnoA,57.0,Test,1,1.0,1.0,0.0,1.0,0.75,,2.0,1.0,1.727,
s20,1,disease,4,FnoA,58.0,Test,1,0.0,1.0,1.0,0.0,0.5,,1.0,,1.864,
s20,1,disease,4,FnoA,59.0,Test,1,0.0,0.0,1.0,0.0,0.25,,1.0,2.0,1.295,
s20,1,disease,4,FnoA,60.0,Test,1,1.0,0.0,0.0,0.0,0.75,,2.0,1.0,1.357,
s20,1,disease,4,FnoA,61.0,Test,1,1.0,0.0,1.0,1.0,0.25,,1.0,2.0,1.719,
s20,1,disease,4,FnoA,62.0,Test,1,0.0,1.0,1.0,1.0,0.25,,2.0,2.0,1.484,
s20,1,disease,4,FnoA,63.0,Test,1,1.0,1.0,0.0,0.0,1.0,,1.0,1.0,1.669,
s20,1,disease,4,FnoA,64.0,Test,1,0.0,1.0,0.0,0.0,0.75,,2.0,1.0,1.207,
s20,1,disease,4,FnoA,65.0,Test,1,0.0,1.0,0.0,1.0,0.5,,1.0,,1.282,
s20,1,disease,4,FnoA,66.0,Test,1,1.0,1.0,1.0,0.0,0.75,,2.0,1.0,1.513,
s20,1,disease,4,FnoA,67.0,Test,1,0.0,0.0,1.0,1.0,0.0,,1.0,2.0,0.988,
s20,1,disease,4,FnoA,68.0,Test,1,1.0,0.0,1.0,0.0,0.5,,1.0,,1.254,
s20,1,disease,4,FnoA,69.0,Test,1,1.0,0.0,0.0,1.0,0.5,,1.0,,1.288,
s20,1,disease,4,FnoA,70.0,Test,1,0.0,0.0,0.0,1.0,0.25,,2.0,2.0,1.011,
s21,2,disease,1,FnoA,57.0,Test,1,1.0,1.0,0.0,0.0,1.0,,1.0,1.0,2.787,
s21,2,disease,1,FnoA,58.0,Test,1,0.0,1.0,0.0,0.0,0.75,,1.0,1.0,1.014,
s21,2,disease,1,FnoA,59.0,Test,1,1.0,0.0,1.0,0.0,0.5,,2.0,,2.605,
s21,2,disease,1,FnoA,60.0,Test,1,0.0,0.0,1.0,0.0,0.25,,2.0,2.0,1.152,
s21,2,disease,1,FnoA,61.0,Test,1,0.0,0.0,0.0,1.0,0.25,,2.0,2.0,0.77,
s21,2,disease,1,FnoA,62.0,Test,1,1.0,1.0,0.0,1.0,0.75,,2.0,1.0,0.883,
s21,2,disease,1,FnoA,63.0,Test,1,0.0,1.0,1.0,0.0,0.5,,1.0,,1.163,
s21,2,disease,1,FnoA,64.0,Test,1,0.0,1.0,0.0,1.0,0.5,,1.0,,1.006,
s21,2,disease,1,FnoA,65.0,Test,1,0.0,0.0,1.0,1.0,0.0,,2.0,2.0,0.761,
s21,2,disease,1,FnoA,66.0,Test,1,1.0,0.0,1.0,1.0,0.25,,2.0,2.0,0.847,
s21,2,disease,1,FnoA,67.0,Test,1,0.0,1.0,1.0,1.0,0.25,,1.0,2.0,1.549,
s21,2,disease,1,FnoA,68.0,Test,1,1.0,0.0,0.0,0.0,0.75,,2.0,1.0,0.899,
s21,2,disease,1,FnoA,69.0,Test,1,1.0,1.0,1.0,0.0,0.75,,1.0,1.0,3.036,
s21,2,disease,1,FnoA,70.0,Test,1,1.0,0.0,0.0,1.0,0.5,,2.0,,0.646,
s22,1,weather,2,FnoA,57.0,Test,1,1.0,1.0,0.0,1.0,0.75,,2.0,1.0,4.061,
s22,1,weather,2,FnoA,58.0,Test,1,0.0,1.0,1.0,0.0,0.5,,1.0,,3.189,
s22,1,weather,2,FnoA,59.0,Test,1,0.0,0.0,1.0,0.0,0.25,,2.0,2.0,1.612,
s22,1,weather,2,FnoA,60.0,Test,1,1.0,0.0,0.0,0.0,0.75,,2.0,1.0,1.317,
s22,1,weather,2,FnoA,61.0,Test,1,1.0,0.0,1.0,1.0,0.25,,1.0,2.0,1.877,
s22,1,weather,2,FnoA,62.0,Test,1,0.0,1.0,1.0,1.0,0.25,,1.0,2.0,1.494,
s22,1,weather,2,FnoA,63.0,Test,1,1.0,1.0,0.0,0.0,1.0,,1.0,1.0,4.962,
s22,1,weather,2,FnoA,64.0,Test,1,0.0,1.0,0.0,0.0,0.75,,1.0,1.0,0.902,
s22,1,weather,2,FnoA,65.0,Test,1,0.0,1.0,0.0,1.0,0.5,,1.0,,2.45,
s22,1,weather,2,FnoA,66.0,Test,1,1.0,1.0,1.0,0.0,0.75,,1.0,1.0,2.524,
s22,1,weather,2,FnoA,67.0,Test,1,0.0,0.0,1.0,1.0,0.0,,2.0,2.0,1.835,
s22,1,weather,2,FnoA,68.0,Test,1,1.0,0.0,1.0,0.0,0.5,,2.0,,2.605,
s22,1,weather,2,FnoA,69.0,Test,1,1.0,0.0,0.0,1.0,0.5,,1.0,,2.487,
s22,1,weather,2,FnoA,70.0,Test,1,0.0,0.0,0.0,1.0,0.25,,1.0,2.0,1.253,
s23,2,weather,3,FnoA,57.0,Test,1,1.0,1.0,0.0,0.0,1.0,,2.0,1.0,4.404,
s23,2,weather,3,FnoA,58.0,Test,1,0.0,1.0,0.0,0.0,0.75,,2.0,1.0,2.68,
s23,2,weather,3,FnoA,59.0,Test,1,1.0,0.0,1.0,0.0,0.5,,2.0,,0.545,
s23,2,weather,3,FnoA,60.0,Test,1,0.0,0.0,1.0,0.0,0.25,,2.0,2.0,0.45,
s23,2,weather,3,FnoA,61.0,Test,1,0.0,0.0,0.0,1.0,0.25,,2.0,2.0,0.411,
s23,2,weather,3,FnoA,62.0,Test,1,1.0,1.0,0.0,1.0,0.75,,2.0,1.0,0.185,
s23,2,weather,3,FnoA,63.0,Test,1,0.0,1.0,1.0,0.0,0.5,,2.0,,0.235,
s23,2,weather,3,FnoA,64.0,Test,1,0.0,1.0,0.0,1.0,0.5,,2.0,,0.191,
s23,2,weather,3,FnoA,65.0,Test,1,0.0,0.0,1.0,1.0,0.0,,2.0,2.0,0.192,
s23,2,weather,3,FnoA,66.0,Test,1,1.0,0.0,1.0,1.0,0.25,,2.0,2.0,0.128,
s23,2,weather,3,FnoA,67.0,Test,1,0.0,1.0,1.0,1.0,0.25,,2.0,2.0,0.164,
s23,2,weather,3,FnoA,68.0,Test,1,1.0,0.0,0.0,0.0,0.75,,2.0,1.0,0.132,
s23,2,weather,3,FnoA,69.0,Test,1,1.0,1.0,1.0,0.0,0.75,,2.0,1.0,0.205,
s23,2,weather,3,FnoA,70.0,Test,1,1.0,0.0,0.0,1.0,0.5,,2.0,,0.213,
s24,1,disease,4,FnoA,57.0,Test,1,1.0,1.0,0.0,1.0,0.75,,2.0,1.0,4.41,
s24,1,disease,4,FnoA,58.0,Test,1,0.0,1.0,1.0,0.0,0.5,,2.0,,1.073,
s24,1,disease,4,FnoA,59.0,Test,1,0.0,0.0,1.0,0.0,0.25,,2.0,2.0,0.533,
s24,1,disease,4,FnoA,60.0,Test,1,1.0,0.0,0.0,0.0,0.75,,1.0,1.0,1.169,
s24,1,disease,4,FnoA,61.0,Test,1,1.0,0.0,1.0,1.0,0.25,,2.0,2.0,0.768,
s24,1,disease,4,FnoA,62.0,Test,1,0.0,1.0,1.0,1.0,0.25,,2.0,2.0,0.672,
s24,1,disease,4,FnoA,63.0,Test,1,1.0,1.0,0.0,0.0,1.0,,1.0,1.0,0.8,
s24,1,disease,4,FnoA,64.0,Test,1,0.0,1.0,0.0,0.0,0.75,,1.0,1.0,1.018,
s24,1,disease,4,FnoA,65.0,Test,1,0.0,1.0,0.0,1.0,0.5,,2.0,,1.836,
s24,1,disease,4,FnoA,66.0,Test,1,1.0,1.0,1.0,0.0,0.75,,2.0,1.0,0.922,
s24,1,disease,4,FnoA,67.0,Test,1,0.0,0.0,1.0,1.0,0.0,,2.0,2.0,0.677,
s24,1,disease,4,FnoA,68.0,Test,1,1.0,0.0,1.0,0.0,0.5,,2.0,,0.632,
s24,1,disease,4,FnoA,69.0,Test,1,1.0,0.0,0.0,1.0,0.5,,2.0,,1.576,
s24,1,disease,4,FnoA,70.0,Test,1,0.0,0.0,0.0,1.0,0.25,,1.0,2.0,1.231,
s25,2,disease,1,FnoA,57.0,Test,1,1.0,1.0,0.0,0.0,1.0,,2.0,1.0,7.637,
s25,2,disease,1,FnoA,58.0,Test,1,0.0,1.0,0.0,0.0,0.75,,1.0,1.0,3.548,
s25,2,disease,1,FnoA,59.0,Test,1,1.0,0.0,1.0,0.0,0.5,,2.0,,1.355,
s25,2,disease,1,FnoA,60.0,Test,1,0.0,0.0,1.0,0.0,0.25,,2.0,2.0,1.053,
s25,2,disease,1,FnoA,61.0,Test,1,0.0,0.0,0.0,1.0,0.25,,2.0,2.0,2.716,
s25,2,disease,1,FnoA,62.0,Test,1,1.0,1.0,0.0,1.0,0.75,,1.0,1.0,1.66,
s25,2,disease,1,FnoA,63.0,Test,1,0.0,1.0,1.0,0.0,0.5,,1.0,,1.526,
s25,2,disease,1,FnoA,64.0,Test,1,0.0,1.0,0.0,1.0,0.5,,1.0,,1.569,
s25,2,disease,1,FnoA,65.0,Test,1,0.0,0.0,1.0,1.0,0.0,,2.0,2.0,1.185,
s25,2,disease,1,FnoA,66.0,Test,1,1.0,0.0,1.0,1.0,0.25,,2.0,2.0,1.655,
s25,2,disease,1,FnoA,67.0,Test,1,0.0,1.0,1.0,1.0,0.25,,1.0,2.0,0.922,
s25,2,disease,1,FnoA,68.0,Test,1,1.0,0.0,0.0,0.0,0.75,,2.0,1.0,2.327,
s25,2,disease,1,FnoA,69.0,Test,1,1.0,1.0,1.0,0.0,0.75,,1.0,1.0,1.186,
s25,2,disease,1,FnoA,70.0,Test,1,1.0,0.0,0.0,1.0,0.5,,1.0,,2.627,
s26,1,weather,2,FnoA,57.0,Test,1,1.0,1.0,0.0,1.0,0.75,,2.0,1.0,3.631,
s26,1,weather,2,FnoA,58.0,Test,1,0.0,1.0,1.0,0.0,0.5,,1.0,,8.966,
s26,1,weather,2,FnoA,59.0,Test,1,0.0,0.0,1.0,0.0,0.25,,1.0,2.0,1.904,
s26,1,weather,2,FnoA,60.0,Test,1,1.0,0.0,0.0,0.0,0.75,,2.0,1.0,2.675,
s26,1,weather,2,FnoA,61.0,Test,1,1.0,0.0,1.0,1.0,0.25,,1.0,2.0,2.74,
s26,1,weather,2,FnoA,62.0,Test,1,0.0,1.0,1.0,1.0,0.25,,2.0,2.0,2.443,
s26,1,weather,2,FnoA,63.0,Test,1,1.0,1.0,0.0,0.0,1.0,,2.0,1.0,2.126,
s26,1,weather,2,FnoA,64.0,Test,1,0.0,1.0,0.0,0.0,0.75,,2.0,1.0,1.348,
s26,1,weather,2,FnoA,65.0,Test,1,0.0,1.0,0.0,1.0,0.5,,1.0,,1.291,
s26,1,weather,2,FnoA,66.0,Test,1,1.0,1.0,1.0,0.0,0.75,,2.0,1.0,1.777,
s26,1,weather,2,FnoA,67.0,Test,1,0.0,0.0,1.0,1.0,0.0,,2.0,2.0,2.066,
s26,1,weather,2,FnoA,68.0,Test,1,1.0,0.0,1.0,0.0,0.5,,1.0,,0.714,
s26,1,weather,2,FnoA,69.0,Test,1,1.0,0.0,0.0,1.0,0.5,,2.0,,1.497,
s26,1,weather,2,FnoA,70.0,Test,1,0.0,0.0,0.0,1.0,0.25,,1.0,2.0,1.649,
s27,2,weather,3,FnoA,57.0,Test,1,1.0,1.0,0.0,0.0,1.0,,1.0,1.0,1.588,
s27,2,weather,3,FnoA,58.0,Test,1,0.0,1.0,0.0,0.0,0.75,,2.0,1.0,2.002,
s27,2,weather,3,FnoA,59.0,Test,1,1.0,0.0,1.0,0.0,0.5,,1.0,,0.444,
s27,2,weather,3,FnoA,60.0,Test,1,0.0,0.0,1.0,0.0,0.25,,1.0,2.0,0.843,
s27,2,weather,3,FnoA,61.0,Test,1,0.0,0.0,0.0,1.0,0.25,,2.0,2.0,0.705,
s27,2,weather,3,FnoA,62.0,Test,1,1.0,1.0,0.0,1.0,0.75,,2.0,1.0,0.677,
s27,2,weather,3,FnoA,63.0,Test,1,0.0,1.0,1.0,0.0,0.5,,1.0,,0.464,
s27,2,weather,3,FnoA,64.0,Test,1,0.0,1.0,0.0,1.0,0.5,,2.0,,0.655,
s27,2,weather,3,FnoA,65.0,Test,1,0.0,0.0,1.0,1.0,0.0,,2.0,2.0,0.625,
s27,2,weather,3,FnoA,66.0,Test,1,1.0,0.0,1.0,1.0,0.25,,2.0,2.0,0.743,
s27,2,weather,3,FnoA,67.0,Test,1,0.0,1.0,1.0,1.0,0.25,,2.0,2.0,1.092,
s27,2,weather,3,FnoA,68.0,Test,1,1.0,0.0,0.0,0.0,0.75,,1.0,1.0,0.477,
s27,2,weather,3,FnoA,69.0,Test,1,1.0,1.0,1.0,0.0,0.75,,2.0,1.0,0.666,
s27,2,weather,3,FnoA,70.0,Test,1,1.0,0.0,0.0,1.0,0.5,,2.0,,1.713,
s28,1,disease,4,FnoA,57.0,Test,1,1.0,1.0,0.0,1.0,0.75,,1.0,1.0,0.861,
s28,1,disease,4,FnoA,58.0,Test,1,0.0,1.0,1.0,0.0,0.5,,2.0,,0.481,
s28,1,disease,4,FnoA,59.0,Test,1,0.0,0.0,1.0,0.0,0.25,,2.0,2.0,0.421,
s28,1,disease,4,FnoA,60.0,Test,1,1.0,0.0,0.0,0.0,0.75,,2.0,1.0,0.397,
s28,1,disease,4,FnoA,61.0,Test,1,1.0,0.0,1.0,1.0,0.25,,1.0,2.0,0.283,
s28,1,disease,4,FnoA,62.0,Test,1,0.0,1.0,1.0,1.0,0.25,,2.0,2.0,0.282,
s28,1,disease,4,FnoA,63.0,Test,1,1.0,1.0,0.0,0.0,1.0,,2.0,1.0,0.355,
s28,1,disease,4,FnoA,64.0,Test,1,0.0,1.0,0.0,0.0,0.75,,2.0,1.0,0.471,
s28,1,disease,4,FnoA,65.0,Test,1,0.0,1.0,0.0,1.0,0.5,,1.0,,0.275,
s28,1,disease,4,FnoA,66.0,Test,1,1.0,1.0,1.0,0.0,0.75,,2.0,1.0,0.372,
s28,1,disease,4,FnoA,67.0,Test,1,0.0,0.0,1.0,1.0,0.0,,2.0,2.0,0.292,
s28,1,disease,4,FnoA,68.0,Test,1,1.0,0.0,1.0,0.0,0.5,,2.0,,1.372,
s28,1,disease,4,FnoA,69.0,Test,1,1.0,0.0,0.0,1.0,0.5,,2.0,,0.414,
s28,1,disease,4,FnoA,70.0,Test,1,0.0,0.0,0.0,1.0,0.25,,2.0,2.0,0.334,
s29,2,disease,1,FnoA,57.0,Test,1,1.0,1.0,0.0,0.0,1.0,,1.0,1.0,4.04,
s29,2,disease,1,FnoA,58.0,Test,1,0.0,1.0,0.0,0.0,0.75,,1.0,1.0,1.217,
s29,2,disease,1,FnoA,59.0,Test,1,1.0,0.0,1.0,0.0,0.5,,1.0,,3.565,
s29,2,disease,1,FnoA,60.0,Test,1,0.0,0.0,1.0,0.0,0.25,,2.0,2.0,1.222,
s29,2,disease,1,FnoA,61.0,Test,1,0.0,0.0,0.0,1.0,0.25,,1.0,2.0,1.112,
s29,2,disease,1,FnoA,62.0,Test,1,1.0,1.0,0.0,1.0,0.75,,1.0,1.0,1.266,
s29,2,disease,1,FnoA,63.0,Test,1,0.0,1.0,1.0,0.0,0.5,,2.0,,0.947,
s29,2,disease,1,FnoA,64.0,Test,1,0.0,1.0,0.0,1.0,0.5,,2.0,,1.979,
s29,2,disease,1,FnoA,65.0,Test,1,0.0,0.0,1.0,1.0,0.0,,2.0,2.0,2.662,
s29,2,disease,1,FnoA,66.0,Test,1,1.0,0.0,1.0,1.0,0.25,,1.0,2.0,1.48,
s29,2,disease,1,FnoA,67.0,Test,1,0.0,1.0,1.0,1.0,0.25,,2.0,2.0,1.223,
s29,2,disease,1,FnoA,68.0,Test,1,1.0,0.0,0.0,0.0,0.75,,2.0,1.0,0.96,
s29,2,disease,1,FnoA,69.0,Test,1,1.0,1.0,1.0,0.0,0.75,,1.0,1.0,4.123,
s29,2,disease,1,FnoA,70.0,Test,1,1.0,0.0,0.0,1.0,0.5,,2.0,,1.913,
s3,2,weather,3,FnoA,57.0,Test,1,1.0,1.0,0.0,0.0,1.0,,1.0,1.0,2.212,
s3,2,weather,3,FnoA,58.0,Test,1,0.0,1.0,0.0,0.0,0.75,,1.0,1.0,1.463,
s3,2,weather,3,FnoA,59.0,Test,1,1.0,0.0,1.0,0.0,0.5,,1.0,,0.956,
s3,2,weather,3,FnoA,60.0,Test,1,0.0,0.0,1.0,0.0,0.25,,2.0,2.0,1.087,
s3,2,weather,3,FnoA,61.0,Test,1,0.0,0.0,0.0,1.0,0.25,,2.0,2.0,0.891,
s3,2,weather,3,FnoA,62.0,Test,1,1.0,1.0,0.0,1.0,0.75,,1.0,1.0,1.138,
s3,2,weather,3,FnoA,63.0,Test,1,0.0,1.0,1.0,0.0,0.5,,1.0,,1.205,
s3,2,weather,3,FnoA,64.0,Test,1,0.0,1.0,0.0,1.0,0.5,,2.0,,2.151,
s3,2,weather,3,FnoA,65.0,Test,1,0.0,0.0,1.0,1.0,0.0,,2.0,2.0,0.569,
s3,2,weather,3,FnoA,66.0,Test,1,1.0,0.0,1.0,1.0,0.25,,2.0,2.0,0.477,
s3,2,weather,3,FnoA,67.0,Test,1,0.0,1.0,1.0,1.0,0.25,,2.0,2.0,0.824,
s3,2,weather,3,FnoA,68.0,Test,1,1.0,0.0,0.0,0.0,0.75,,1.0,1.0,1.867,
s3,2,weather,3,FnoA,69.0,Test,1,1.0,1.0,1.0,0.0,0.75,,1.0,1.0,0.578,
s3,2,weather,3,FnoA,70.0,Test,1,1.0,0.0,0.0,1.0,0.5,,2.0,,0.69,
s30,1,weather,2,FnoA,57.0,Test,1,1.0,1.0,0.0,1.0,0.75,,2.0,1.0,1.089,
s30,1,weather,2,FnoA,58.0,Test,1,0.0,1.0,1.0,0.0,0.5,,2.0,,1.43,
s30,1,weather,2,FnoA,59.0,Test,1,0.0,0.0,1.0,0.0,0.25,,2.0,2.0,1.08,
s30,1,weather,2,FnoA,60.0,Test,1,1.0,0.0,0.0,0.0,0.75,,2.0,1.0,0.799,
s30,1,weather,2,FnoA,61.0,Test,1,1.0,0.0,1.0,1.0,0.25,,1.0,2.0,0.723,
s30,1,weather,2,FnoA,62.0,Test,1,0.0,1.0,1.0,1.0,0.25,,1.0,2.0,0.532,
s30,1,weather,2,FnoA,63.0,Test,1,1.0,1.0,0.0,0.0,1.0,,2.0,1.0,1.539,
s30,1,weather,2,FnoA,64.0,Test,1,0.0,1.0,0.0,0.0,0.75,,2.0,1.0,0.856,
s30,1,weather,2,FnoA,65.0,Test,1,0.0,1.0,0.0,1.0,0.5,,2.0,,1.789,
s30,1,weather,2,FnoA,66.0,Test,1,1.0,1.0,1.0,0.0,0.75,,1.0,1.0,0.669,
s30,1,weather,2,FnoA,67.0,Test,1,0.0,0.0,1.0,1.0,0.0,,1.0,2.0,0.776,
s30,1,weather,2,FnoA,68.0,Test,1,1.0,0.0,1.0,0.0,0.5,,2.0,,0.91,
s30,1,weather,2,FnoA,69.0,Test,1,1.0,0.0,0.0,1.0,0.5,,2.0,,0.495,
s30,1,weather,2,FnoA,70.0,Test,1,0.0,0.0,0.0,1.0,0.25,,2.0,2.0,0.698,
s31,2,weather,3,FnoA,57.0,Test,1,1.0,1.0,0.0,0.0,1.0,,2.0,1.0,2.936,
s31,2,weather,3,FnoA,58.0,Test,1,0.0,1.0,0.0,0.0,0.75,,2.0,1.0,6.45,
s31,2,weather,3,FnoA,59.0,Test,1,1.0,0.0,1.0,0.0,0.5,,2.0,,9.24,
s31,2,weather,3,FnoA,60.0,Test,1,0.0,0.0,1.0,0.0,0.25,,2.0,2.0,0.739,
s31,2,weather,3,FnoA,61.0,Test,1,0.0,0.0,0.0,1.0,0.25,,2.0,2.0,1.664,
s31,2,weather,3,FnoA,62.0,Test,1,1.0,1.0,0.0,1.0,0.75,,1.0,1.0,2.008,
s31,2,weather,3,FnoA,63.0,Test,1,0.0,1.0,1.0,0.0,0.5,,2.0,,3.063,
s31,2,weather,3,FnoA,64.0,Test,1,0.0,1.0,0.0,1.0,0.5,,1.0,,2.012,
s31,2,weather,3,FnoA,65.0,Test,1,0.0,0.0,1.0,1.0,0.0,,2.0,2.0,1.579,
s31,2,weather,3,FnoA,66.0,Test,1,1.0,0.0,1.0,1.0,0.25,,1.0,2.0,6.043,
s31,2,weather,3,FnoA,67.0,Test,1,0.0,1.0,1.0,1.0,0.25,,2.0,2.0,4.398,
s31,2,weather,3,FnoA,68.0,Test,1,1.0,0.0,0.0,0.0,0.75,,2.0,1.0,1.942,
s31,2,weather,3,FnoA,69.0,Test,1,1.0,1.0,1.0,0.0,0.75,,1.0,1.0,2.678,
s31,2,weather,3,FnoA,70.0,Test,1,1.0,0.0,0.0,1.0,0.5,,2.0,,1.355,
s32,1,disease,4,FnoA,57.0,Test,1,1.0,1.0,0.0,1.0,0.75,,1.0,1.0,2.429,
s32,1,disease,4,FnoA,58.0,Test,1,0.0,1.0,1.0,0.0,0.5,,2.0,,3.854,
s32,1,disease,4,FnoA,59.0,Test,1,0.0,0.0,1.0,0.0,0.25,,2.0,2.0,1.225,
s32,1,disease,4,FnoA,60.0,Test,1,1.0,0.0,0.0,0.0,0.75,,2.0,1.0,2.523,
s32,1,disease,4,FnoA,61.0,Test,1,1.0,0.0,1.0,1.0,0.25,,2.0,2.0,3.537,
s32,1,disease,4,FnoA,62.0,Test,1,0.0,1.0,1.0,1.0,0.25,,1.0,2.0,0.993,
s32,1,disease,4,FnoA,63.0,Test,1,1.0,1.0,0.0,0.0,1.0,,1.0,1.0,3.465,
s32,1,disease,4,FnoA,64.0,Test,1,0.0,1.0,0.0,0.0,0.75,,1.0,1.0,0.663,
s32,1,disease,4,FnoA,65.0,Test,1,0.0,1.0,0.0,1.0,0.5,,1.0,,0.775,
s32,1,disease,4,FnoA,66.0,Test,1,1.0,1.0,1.0,0.0,0.75,,1.0,1.0,2.225,
s32,1,disease,4,FnoA,67.0,Test,1,0.0,0.0,1.0,1.0,0.0,,1.0,2.0,3.376,
s32,1,disease,4,FnoA,68.0,Test,1,1.0,0.0,1.0,0.0,0.5,,2.0,,2.943,
s32,1,disease,4,FnoA,69.0,Test,1,1.0,0.0,0.0,1.0,0.5,,1.0,,3.338,
s32,1,disease,4,FnoA,70.0,Test,1,0.0,0.0,0.0,1.0,0.25,,1.0,2.0,1.115,
s33,2,disease,1,FnoA,57.0,Test,1,1.0,1.0,0.0,0.0,1.0,,1.0,1.0,7.605,
s33,2,disease,1,FnoA,58.0,Test,1,0.0,1.0,0.0,0.0,0.75,,2.0,1.0,3.202,
s33,2,disease,1,FnoA,59.0,Test,1,1.0,0.0,1.0,0.0,0.5,,2.0,,6.97,
s33,2,disease,1,FnoA,60.0,Test,1,0.0,0.0,1.0,0.0,0.25,,2.0,2.0,3.613,
s33,2,disease,1,FnoA,61.0,Test,1,0.0,0.0,0.0,1.0,0.25,,1.0,2.0,2.038,
s33,2,disease,1,FnoA,62.0,Test,1,1.0,1.0,0.0,1.0,0.75,,1.0,1.0,2.269,
s33,2,disease,1,FnoA,63.0,Test,1,0.0,1.0,1.0,0.0,0.5,,2.0,,1.756,
s33,2,disease,1,FnoA,64.0,Test,1,0.0,1.0,0.0,1.0,0.5,,1.0,,1.964,
s33,2,disease,1,FnoA,65.0,Test,1,0.0,0.0,1.0,1.0,0.0,,2.0,2.0,6.9,
s33,2,disease,1,FnoA,66.0,Test,1,1.0,0.0,1.0,1.0,0.25,,2.0,2.0,2.868,
s33,2,disease,1,FnoA,67.0,Test,1,0.0,1.0,1.0,1.0,0.25,,1.0,2.0,2.889,
s33,2,disease,1,FnoA,68.0,Test,1,1.0,0.0,0.0,0.0,0.75,,2.0,1.0,3.71,
s33,2,disease,1,FnoA,69.0,Test,1,1.0,1.0,1.0,0.0,0.75,,2.0,1.0,3.058,
s33,2,disease,1,FnoA,70.0,Test,1,1.0,0.0,0.0,1.0,0.5,,1.0,,2.105,
s34,1,weather,2,FnoA,57.0,Test,1,1.0,1.0,0.0,1.0,0.75,,2.0,1.0,1.119,
s34,1,weather,2,FnoA,58.0,Test,1,0.0,1.0,1.0,0.0,0.5,,2.0,,0.55,
s34,1,weather,2,FnoA,59.0,Test,1,0.0,0.0,1.0,0.0,0.25,,2.0,2.0,0.359,
s34,1,weather,2,FnoA,60.0,Test,1,1.0,0.0,0.0,0.0,0.75,,1.0,1.0,0.779,
s34,1,weather,2,FnoA,61.0,Test,1,1.0,0.0,1.0,1.0,0.25,,2.0,2.0,0.564,
s34,1,weather,2,FnoA,62.0,Test,1,0.0,1.0,1.0,1.0,0.25,,2.0,2.0,0.73,
s34,1,weather,2,FnoA,63.0,Test,1,1.0,1.0,0.0,0.0,1.0,,2.0,1.0,2.0,
s34,1,weather,2,FnoA,64.0,Test,1,0.0,1.0,0.0,0.0,0.75,,1.0,1.0,0.419,
s34,1,weather,2,FnoA,65.0,Test,1,0.0,1.0,0.0,1.0,0.5,,1.0,,0.697,
s34,1,weather,2,FnoA,66.0,Test,1,1.0,1.0,1.0,0.0,0.75,,2.0,1.0,0.58,
s34,1,weather,2,FnoA,67.0,Test,1,0.0,0.0,1.0,1.0,0.0,,2.0,2.0,0.53,
s34,1,weather,2,FnoA,68.0,Test,1,1.0,0.0,1.0,0.0,0.5,,2.0,,0.431,
s34,1,weather,2,FnoA,69.0,Test,1,1.0,0.0,0.0,1.0,0.5,,1.0,,0.693,
s34,1,weather,2,FnoA,70.0,Test,1,0.0,0.0,0.0,1.0,0.25,,1.0,2.0,1.057,
s35,2,weather,3,FnoA,57.0,Test,1,1.0,1.0,0.0,0.0,1.0,,1.0,1.0,6.544,
s35,2,weather,3,FnoA,58.0,Test,1,0.0,1.0,0.0,0.0,0.75,,2.0,1.0,2.355,
s35,2,weather,3,FnoA,59.0,Test,1,1.0,0.0,1.0,0.0,0.5,,2.0,,0.679,
s35,2,weather,3,FnoA,60.0,Test,1,0.0,0.0,1.0,0.0,0.25,,1.0,2.0,1.062,
s35,2,weather,3,FnoA,61.0,Test,1,0.0,0.0,0.0,1.0,0.25,,1.0,2.0,1.031,
s35,2,weather,3,FnoA,62.0,Test,1,1.0,1.0,0.0,1.0,0.75,,2.0,1.0,2.363,
s35,2,weather,3,FnoA,63.0,Test,1,0.0,1.0,1.0,0.0,0.5,,1.0,,0.799,
s35,2,weather,3,FnoA,64.0,Test,1,0.0,1.0,0.0,1.0,0.5,,1.0,,0.821,
s35,2,weather,3,FnoA,65.0,Test,1,0.0,0.0,1.0,1.0,0.0,,1.0,2.0,0.936,
s35,2,weather,3,FnoA,66.0,Test,1,1.0,0.0,1.0,1.0,0.25,,2.0,2.0,0.367,
s35,2,weather,3,FnoA,67.0,Test,1,0.0,1.0,1.0,1.0,0.25,,2.0,2.0,0.261,
s35,2,weather,3,FnoA,68.0,Test,1,1.0,0.0,0.0,0.0,0.75,,1.0,1.0,0.415,
s35,2,weather,3,FnoA,69.0,Test,1,1.0,1.0,1.0,0.0,0.75,,1.0,1.0,0.998,
s35,2,weather,3,FnoA,70.0,Test,1,1.0,0.0,0.0,1.0,0.5,,2.0,,1.276,
s36,1,disease,4,FnoA,57.0,Test,1,1.0,1.0,0.0,1.0,0.75,,2.0,1.0,1.185,
s36,1,disease,4,FnoA,58.0,Test,1,0.0,1.0,1.0,0.0,0.5,,2.0,,2.228,
s36,1,disease,4,FnoA,59.0,Test,1,0.0,0.0,1.0,0.0,0.25,,2.0,2.0,1.005,
s36,1,disease,4,FnoA,60.0,Test,1,1.0,0.0,0.0,0.0,0.75,,2.0,1.0,2.024,
s36,1,disease,4,FnoA,61.0,Test,1,1.0,0.0,1.0,1.0,0.25,,1.0,2.0,0.604,
s36,1,disease,4,FnoA,62.0,Test,1,0.0,1.0,1.0,1.0,0.25,,1.0,2.0,1.113,
s36,1,disease,4,FnoA,63.0,Test,1,1.0,1.0,0.0,0.0,1.0,,1.0,1.0,0.502,
s36,1,disease,4,FnoA,64.0,Test,1,0.0,1.0,0.0,0.0,0.75,,1.0,1.0,1.975,
s36,1,disease,4,FnoA,65.0,Test,1,0.0,1.0,0.0,1.0,0.5,,2.0,,0.852,
s36,1,disease,4,FnoA,66.0,Test,1,1.0,1.0,1.0,0.0,0.75,,1.0,1.0,0.501,
s36,1,disease,4,FnoA,67.0,Test,1,0.0,0.0,1.0,1.0,0.0,,2.0,2.0,3.695,
s36,1,disease,4,FnoA,68.0,Test,1,1.0,0.0,1.0,0.0,0.5,,1.0,,3.134,
s36,1,disease,4,FnoA,69.0,Test,1,1.0,0.0,0.0,1.0,0.5,,2.0,,3.602,
s36,1,disease,4,FnoA,70.0,Test,1,0.0,0.0,0.0,1.0,0.25,,2.0,2.0,2.769,
s37,2,disease,1,FnoA,57.0,Test,1,1.0,1.0,0.0,0.0,1.0,,1.0,1.0,0.885,
s37,2,disease,1,FnoA,58.0,Test,1,0.0,1.0,0.0,0.0,0.75,,1.0,1.0,0.494,
s37,2,disease,1,FnoA,59.0,Test,1,1.0,0.0,1.0,0.0,0.5,,1.0,,1.083,
s37,2,disease,1,FnoA,60.0,Test,1,0.0,0.0,1.0,0.0,0.25,,2.0,2.0,0.559,
s37,2,disease,1,FnoA,61.0,Test,1,0.0,0.0,0.0,1.0,0.25,,1.0,2.0,0.638,
s37,2,disease,1,FnoA,62.0,Test,1,1.0,1.0,0.0,1.0,0.75,,1.0,1.0,1.285,
s37,2,disease,1,FnoA,63.0,Test,1,0.0,1.0,1.0,0.0,0.5,,1.0,,0.81,
s37,2,disease,1,FnoA,64.0,Test,1,0.0,1.0,0.0,1.0,0.5,,2.0,,0.683,
s37,2,disease,1,FnoA,65.0,Test,1,0.0,0.0,1.0,1.0,0.0,,2.0,2.0,2.348,
s37,2,disease,1,FnoA,66.0,Test,1,1.0,0.0,1.0,1.0,0.25,,1.0,2.0,0.883,
s37,2,disease,1,FnoA,67.0,Test,1,0.0,1.0,1.0,1.0,0.25,,1.0,2.0,4.033,
s37,2,disease,1,FnoA,68.0,Test,1,1.0,0.0,0.0,0.0,0.75,,1.0,1.0,0.641,
s37,2,disease,1,FnoA,69.0,Test,1,1.0,1.0,1.0,0.0,0.75,,1.0,1.0,1.093,
s37,2,disease,1,FnoA,70.0,Test,1,1.0,0.0,0.0,1.0,0.5,,2.0,,1.192,
s38,1,weather,2,FnoA,57.0,Test,1,1.0,1.0,0.0,1.0,0.75,,1.0,1.0,8.813,
s38,1,weather,2,FnoA,58.0,Test,1,0.0,1.0,1.0,0.0,0.5,,2.0,,5.692,
s38,1,weather,2,FnoA,59.0,Test,1,0.0,0.0,1.0,0.0,0.25,,2.0,2.0,0.921,
s38,1,weather,2,FnoA,60.0,Test,1,1.0,0.0,0.0,0.0,0.75,,1.0,1.0,9.086,
s38,1,weather,2,FnoA,61.0,Test,1,1.0,0.0,1.0,1.0,0.25,,2.0,2.0,1.35,
s38,1,weather,2,FnoA,62.0,Test,1,0.0,1.0,1.0,1.0,0.25,,1.0,2.0,8.473,
s38,1,weather,2,FnoA,63.0,Test,1,1.0,1.0,0.0,0.0,1.0,,1.0,1.0,0.07,
s38,1,weather,2,FnoA,64.0,Test,1,0.0,1.0,0.0,0.0,0.75,,2.0,1.0,1.853,
s38,1,weather,2,FnoA,65.0,Test,1,0.0,1.0,0.0,1.0,0.5,,1.0,,5.428,
s38,1,weather,2,FnoA,66.0,Test,1,1.0,1.0,1.0,0.0,0.75,,1.0,1.0,1.707,
s38,1,weather,2,FnoA,67.0,Test,1,0.0,0.0,1.0,1.0,0.0,,2.0,2.0,1.02,
s38,1,weather,2,FnoA,68.0,Test,1,1.0,0.0,1.0,0.0,0.5,,2.0,,3.392,
s38,1,weather,2,FnoA,69.0,Test,1,1.0,0.0,0.0,1.0,0.5,,1.0,,4.827,
s38,1,weather,2,FnoA,70.0,Test,1,0.0,0.0,0.0,1.0,0.25,,2.0,2.0,1.107,
s39,2,weather,3,FnoA,57.0,Test,1,1.0,1.0,0.0,0.0,1.0,,1.0,1.0,3.007,
s39,2,weather,3,FnoA,58.0,Test,1,0.0,1.0,0.0,0.0,0.75,,2.0,1.0,1.9,
s39,2,weather,3,FnoA,59.0,Test,1,1.0,0.0,1.0,0.0,0.5,,1.0,,2.634,
s39,2,weather,3,FnoA,60.0,Test,1,0.0,0.0,1.0,0.0,0.25,,1.0,2.0,3.508,
s39,2,weather,3,FnoA,61.0,Test,1,0.0,0.0,0.0,1.0,0.25,,2.0,2.0,2.175,
s39,2,weather,3,FnoA,62.0,Test,1,1.0,1.0,0.0,1.0,0.75,,1.0,1.0,2.339,
s39,2,weather,3,FnoA,63.0,Test,1,0.0,1.0,1.0,0.0,0.5,,2.0,,1.48,
s39,2,weather,3,FnoA,64.0,Test,1,0.0,1.0,0.0,1.0,0.5,,1.0,,1.471,
s39,2,weather,3,FnoA,65.0,Test,1,0.0,0.0,1.0,1.0,0.0,,2.0,2.0,2.423,
s39,2,weather,3,FnoA,66.0,Test,1,1.0,0.0,1.0,1.0,0.25,,2.0,2.0,1.316,
s39,2,weather,3,FnoA,67.0,Test,1,0.0,1.0,1.0,1.0,0.25,,1.0,2.0,1.763,
s39,2,weather,3,FnoA,68.0,Test,1,1.0,0.0,0.0,0.0,0.75,,1.0,1.0,2.243,
s39,2,weather,3,FnoA,69.0,Test,1,1.0,1.0,1.0,0.0,0.75,,1.0,1.0,2.841,
s39,2,weather,3,FnoA,70.0,Test,1,1.0,0.0,0.0,1.0,0.5,,2.0,,1.388,
s4,1,disease,4,FnoA,57.0,Test,1,1.0,1.0,0.0,1.0,0.75,,1.0,1.0,5.871,
s4,1,disease,4,FnoA,58.0,Test,1,0.0,1.0,1.0,0.0,0.5,,2.0,,7.99,
s4,1,disease,4,FnoA,59.0,Test,1,0.0,0.0,1.0,0.0,0.25,,2.0,2.0,4.368,
s4,1,disease,4,FnoA,60.0,Test,1,1.0,0.0,0.0,0.0,0.75,,1.0,1.0,1.796,
s4,1,disease,4,FnoA,61.0,Test,1,1.0,0.0,1.0,1.0,0.25,,2.0,2.0,4.69,
s4,1,disease,4,FnoA,62.0,Test,1,0.0,1.0,1.0,1.0,0.25,,1.0,2.0,9.311,
s4,1,disease,4,FnoA,63.0,Test,1,1.0,1.0,0.0,0.0,1.0,,1.0,1.0,1.414,
s4,1,disease,4,FnoA,64.0,Test,1,0.0,1.0,0.0,0.0,0.75,,1.0,1.0,1.655,
s4,1,disease,4,FnoA,65.0,Test,1,0.0,1.0,0.0,1.0,0.5,,1.0,,2.682,
s4,1,disease,4,FnoA,66.0,Test,1,1.0,1.0,1.0,0.0,0.75,,1.0,1.0,2.68,
s4,1,disease,4,FnoA,67.0,Test,1,0.0,0.0,1.0,1.0,0.0,,2.0,2.0,2.395,
s4,1,disease,4,FnoA,68.0,Test,1,1.0,0.0,1.0,0.0,0.5,,1.0,,2.229,
s4,1,disease,4,FnoA,69.0,Test,1,1.0,0.0,0.0,1.0,0.5,,2.0,,1.756,
s4,1,disease,4,FnoA,70.0,Test,1,0.0,0.0,0.0,1.0,0.25,,2.0,2.0,1.313,
s40,1,disease,4,FnoA,57.0,Test,1,1.0,1.0,0.0,1.0,0.75,,1.0,1.0,1.321,
s40,1,disease,4,FnoA,58.0,Test,1,0.0,1.0,1.0,0.0,0.5,,2.0,,0.861,
s40,1,disease,4,FnoA,59.0,Test,1,0.0,0.0,1.0,0.0,0.25,,2.0,2.0,0.74,
s40,1,disease,4,FnoA,60.0,Test,1,1.0,0.0,0.0,0.0,0.75,,1.0,1.0,2.874,
s40,1,disease,4,FnoA,61.0,Test,1,1.0,0.0,1.0,1.0,0.25,,1.0,2.0,0.987,
s40,1,disease,4,FnoA,62.0,Test,1,0.0,1.0,1.0,1.0,0.25,,2.0,2.0,0.754,
s40,1,disease,4,FnoA,63.0,Test,1,1.0,1.0,0.0,0.0,1.0,,1.0,1.0,0.801,
s40,1,disease,4,FnoA,64.0,Test,1,0.0,1.0,0.0,0.0,0.75,,1.0,1.0,1.375,
s40,1,disease,4,FnoA,65.0,Test,1,0.0,1.0,0.0,1.0,0.5,,2.0,,1.056,
s40,1,disease,4,FnoA,66.0,Test,1,1.0,1.0,1.0,0.0,0.75,,1.0,1.0,0.656,
s40,1,disease,4,FnoA,67.0,Test,1,0.0,0.0,1.0,1.0,0.0,,2.0,2.0,2.205,
s40,1,disease,4,FnoA,68.0,Test,1,1.0,0.0,1.0,0.0,0.5,,1.0,,1.434,
s40,1,disease,4,FnoA,69.0,Test,1,1.0,0.0,0.0,1.0,0.5,,2.0,,0.819,
s40,1,disease,4,FnoA,70.0,Test,1,0.0,0.0,0.0,1.0,0.25,,2.0,2.0,0.541,
s5,2,disease,1,FnoA,57.0,Test,1,1.0,1.0,0.0,0.0,1.0,,1.0,1.0,7.467,
s5,2,disease,1,FnoA,58.0,Test,1,0.0,1.0,0.0,0.0,0.75,,2.0,1.0,2.235,
s5,2,disease,1,FnoA,59.0,Test,1,1.0,0.0,1.0,0.0,0.5,,2.0,,1.705,
s5,2,disease,1,FnoA,60.0,Test,1,0.0,0.0,1.0,0.0,0.25,,2.0,2.0,3.235,
s5,2,disease,1,FnoA,61.0,Test,1,0.0,0.0,0.0,1.0,0.25,,2.0,2.0,1.591,
s5,2,disease,1,FnoA,62.0,Test,1,1.0,1.0,0.0,1.0,0.75,,1.0,1.0,0.839,
s5,2,disease,1,FnoA,63.0,Test,1,0.0,1.0,1.0,0.0,0.5,,2.0,,2.082,
s5,2,disease,1,FnoA,64.0,Test,1,0.0,1.0,0.0,1.0,0.5,,1.0,,1.492,
s5,2,disease,1,FnoA,65.0,Test,1,0.0,0.0,1.0,1.0,0.0,,1.0,2.0,0.836,
s5,2,disease,1,FnoA,66.0,Test,1,1.0,0.0,1.0,1.0,0.25,,1.0,2.0,1.165,
s5,2,disease,1,FnoA,67.0,Test,1,0.0,1.0,1.0,1.0,0.25,,2.0,2.0,1.737,
s5,2,disease,1,FnoA,68.0,Test,1,1.0,0.0,0.0,0.0,0.75,,2.0,1.0,2.019,
s5,2,disease,1,FnoA,69.0,Test,1,1.0,1.0,1.0,0.0,0.75,,1.0,1.0,0.87,
s5,2,disease,1,FnoA,70.0,Test,1,1.0,0.0,0.0,1.0,0.5,,1.0,,0.977,
s6,1,weather,2,FnoA,57.0,Test,1,1.0,1.0,0.0,1.0,0.75,,2.0,1.0,1.766,
s6,1,weather,2,FnoA,58.0,Test,1,0.0,1.0,1.0,0.0,0.5,,2.0,,2.851,
s6,1,weather,2,FnoA,59.0,Test,1,0.0,0.0,1.0,0.0,0.25,,2.0,2.0,1.518,
s6,1,weather,2,FnoA,60.0,Test,1,1.0,0.0,0.0,0.0,0.75,,2.0,1.0,0.513,
s6,1,weather,2,FnoA,61.0,Test,1,1.0,0.0,1.0,1.0,0.25,,1.0,2.0,0.646,
s6,1,weather,2,FnoA,62.0,Test,1,0.0,1.0,1.0,1.0,0.25,,2.0,2.0,0.248,
s6,1,weather,2,FnoA,63.0,Test,1,1.0,1.0,0.0,0.0,1.0,,1.0,1.0,0.217,
s6,1,weather,2,FnoA,64.0,Test,1,0.0,1.0,0.0,0.0,0.75,,2.0,1.0,1.63,
s6,1,weather,2,FnoA,65.0,Test,1,0.0,1.0,0.0,1.0,0.5,,1.0,,1.119,
s6,1,weather,2,FnoA,66.0,Test,1,1.0,1.0,1.0,0.0,0.75,,2.0,1.0,0.722,
s6,1,weather,2,FnoA,67.0,Test,1,0.0,0.0,1.0,1.0,0.0,,2.0,2.0,0.442,
s6,1,weather,2,FnoA,68.0,Test,1,1.0,0.0,1.0,0.0,0.5,,1.0,,9.663,
s6,1,weather,2,FnoA,69.0,Test,1,1.0,0.0,0.0,1.0,0.5,,2.0,,0.604,
s6,1,weather,2,FnoA,70.0,Test,1,0.0,0.0,0.0,1.0,0.25,,1.0,2.0,0.827,
s7,2,weather,3,FnoA,57.0,Test,1,1.0,1.0,0.0,0.0,1.0,,2.0,1.0,2.719,
s7,2,weather,3,FnoA,58.0,Test,1,0.0,1.0,0.0,0.0,0.75,,1.0,1.0,1.552,
s7,2,weather,3,FnoA,59.0,Test,1,1.0,0.0,1.0,0.0,0.5,,1.0,,1.501,
s7,2,weather,3,FnoA,60.0,Test,1,0.0,0.0,1.0,0.0,0.25,,1.0,2.0,0.974,
s7,2,weather,3,FnoA,61.0,Test,1,0.0,0.0,0.0,1.0,0.25,,2.0,2.0,1.215,
s7,2,weather,3,FnoA,62.0,Test,1,1.0,1.0,0.0,1.0,0.75,,1.0,1.0,1.201,
s7,2,weather,3,FnoA,63.0,Test,1,0.0,1.0,1.0,0.0,0.5,,1.0,,0.901,
s7,2,weather,3,FnoA,64.0,Test,1,0.0,1.0,0.0,1.0,0.5,,1.0,,1.213,
s7,2,weather,3,FnoA,65.0,Test,1,0.0,0.0,1.0,1.0,0.0,,1.0,2.0,1.36,
s7,2,weather,3,FnoA,66.0,Test,1,1.0,0.0,1.0,1.0,0.25,,2.0,2.0,0.779,
s7,2,weather,3,FnoA,67.0,Test,1,0.0,1.0,1.0,1.0,0.25,,1.0,2.0,0.928,
s7,2,weather,3,FnoA,68.0,Test,1,1.0,0.0,0.0,0.0,0.75,,2.0,1.0,1.046,
s7,2,weather,3,FnoA,69.0,Test,1,1.0,1.0,1.0,0.0,0.75,,1.0,1.0,1.52,
s7,2,weather,3,FnoA,70.0,Test,1,1.0,0.0,0.0,1.0,0.5,,2.0,,1.042,
s8,1,disease,4,FnoA,57.0,Test,1,1.0,1.0,0.0,1.0,0.75,,1.0,1.0,2.246,
s8,1,disease,4,FnoA,58.0,Test,1,0.0,1.0,1.0,0.0,0.5,,1.0,,1.821,
s8,1,disease,4,FnoA,59.0,Test,1,0.0,0.0,1.0,0.0,0.25,,2.0,2.0,1.135,
s8,1,disease,4,FnoA,60.0,Test,1,1.0,0.0,0.0,0.0,0.75,,1.0,1.0,0.669,
s8,1,disease,4,FnoA,61.0,Test,1,1.0,0.0,1.0,1.0,0.25,,1.0,2.0,2.015,
s8,1,disease,4,FnoA,62.0,Test,1,0.0,1.0,1.0,1.0,0.25,,1.0,2.0,1.379,
s8,1,disease,4,FnoA,63.0,Test,1,1.0,1.0,0.0,0.0,1.0,,2.0,1.0,2.826,
s8,1,disease,4,FnoA,64.0,Test,1,0.0,1.0,0.0,0.0,0.75,,1.0,1.0,1.182,
s8,1,disease,4,FnoA,65.0,Test,1,0.0,1.0,0.0,1.0,0.5,,2.0,,1.793,
s8,1,disease,4,FnoA,66.0,Test,1,1.0,1.0,1.0,0.0,0.75,,1.0,1.0,1.193,
s8,1,disease,4,FnoA,67.0,Test,1,0.0,0.0,1.0,1.0,0.0,,1.0,2.0,3.075,
s8,1,disease,4,FnoA,68.0,Test,1,1.0,0.0,1.0,0.0,0.5,,1.0,,1.226,
s8,1,disease,4,FnoA,69.0,Test,1,1.0,0.0,0.0,1.0,0.5,,2.0,,1.826,
s8,1,disease,4,FnoA,70.0,Test,1,0.0,0.0,0.0,1.0,0.25,,1.0,2.0,1.327,
s9,2,disease,1,FnoA,57.0,Test,1,1.0,1.0,0.0,0.0,1.0,,1.0,1.0,2.171,
s9,2,disease,1,FnoA,58.0,Test,1,0.0,1.0,0.0,0.0,0.75,,2.0,1.0,6.062,
s9,2,disease,1,FnoA,59.0,Test,1,1.0,0.0,1.0,0.0,0.5,,1.0,,2.826,
s9,2,disease,1,FnoA,60.0,Test,1,0.0,0.0,1.0,0.0,0.25,,1.0,2.0,9.726,
s9,2,disease,1,FnoA,61.0,Test,1,0.0,0.0,0.0,1.0,0.25,,1.0,2.0,4.856,
s9,2,disease,1,FnoA,62.0,Test,1,1.0,1.0,0.0,1.0,0.75,,1.0,1.0,1.544,
s9,2,disease,1,FnoA,63.0,Test,1,0.0,1.0,1.0,0.0,0.5,,1.0,,2.128,
s9,2,disease,1,FnoA,64.0,Test,1,0.0,1.0,0.0,1.0,0.5,,2.0,,2.381,
s9,2,disease,1,FnoA,65.0,Test,1,0.0,0.0,1.0,1.0,0.0,,1.0,2.0,2.796,
s9,2,disease,1,FnoA,66.0,Test,1,1.0,0.0,1.0,1.0,0.25,,2.0,2.0,1.007,
s9,2,disease,1,FnoA,67.0,Test,1,0.0,1.0,1.0,1.0,0.25,,1.0,2.0,3.42,
s9,2,disease,1,FnoA,68.0,Test,1,1.0,0.0,0.0,0.0,0.75,,1.0,1.0,1.09,
s9,2,disease,1,FnoA,69.0,Test,1,1.0,1.0,1.0,0.0,0.75,,1.0,1.0,2.295,
s9,2,disease,1,FnoA,70.0,Test,1,1.0,0.0,0.0,1.0,0.5,,1.0,,2.339,
