subno,fnoa_order,format,counterbal,condition,trial_n,phase,include,cue_1,cue_2,cue_3,cue_4,prob_outcome_1,outcome,resp_given,resp_norm_corr,resp_time,resp_rewar
s1,2,weather,1,AnoF,1.0,Training,1,1.0,0.0,0.0,0.0,0.75,2.0,,1.0,,
s1,2,weather,1,AnoF,2.0,Training,1,0.0,0.0,1.0,1.0,0.0,2.0,,2.0,,
s1,2,weather,1,AnoF,3.0,Training,1,1.0,0.0,0.0,0.0,0.75,1.0,,1.0,,
s1,2,weather,1,AnoF,4.0,Training,1,0.0,0.0,1.0,0.0,0.25,1.0,,2.0,,
s1,2,weather,1,AnoF,5.0,Training,1,0.0,0.0,1.0,0.0,0.25,2.0,,2.0,,
s1,2,weather,1,AnoF,6.0,Training,1,0.0,0.0,1.0,0.0,0.25,1.0,,2.0,,
s1,2,weather,1,AnoF,7.0,Training,1,0.0,1.0,1.0,1.0,0.25,2.0,,2.0,,
s1,2,weather,1,AnoF,8.0,Training,1,0.0,0.0,0.0,1.0,0.25,2.0,,2.0,,
s1,2,weather,1,AnoF,9.0,Training,1,1.0,0.0,1.0,1.0,0.25,2.0,,2.0,,
s1,2,weather,1,AnoF,10.0,Training,1,0.0,0.0,1.0,0.0,0.25,2.0,,2.0,,
s1,2,weather,1,AnoF,11.0,Training,1,0.0,0.0,0.0,1.0,0.25,2.0,,2.0,,
s1,2,weather,1,AnoF,12.0,Training,1,1.0,1.0,0.0,1.0,0.75,1.0,,1.0,,
s1,2,weather,1,AnoF,13.0,Training,1,0.0,0.0,1.0,0.0,0.25,1.0,,2.0,,
s1,2,weather,1,AnoF,14.0,Training,1,1.0,0.0,0.0,1.0,0.5,2.0,,,,
s1,2,weather,1,AnoF,15.0,Training,1,1.0,0.0,0.0,0.0,0.75,1.0,,1.0,,
s1,2,weather,1,AnoF,16.0,Training,1,0.0,1.0,0.0,0.0,0.75,1.0,,1.0,,
s1,2,weather,1,AnoF,17.0,Training,1,0.0,0.0,0.0,1.0,0.25,2.0,,2.0,,
s1,2,weather,1,AnoF,18.0,Training,1,1.0,0.0,1.0,0.0,0.5,1.0,,,,
s1,2,weather,1,AnoF,19.0,Training,1,0.0,0.0,0.0,1.0,0.25,2.0,,2.0,,
s1,2,weather,1,AnoF,20.0,Training,1,0.0,1.0,0.0,0.0,0.75,2.0,,1.0,,
s1,2,weather,1,AnoF,21.0,Training,1,1.0,1.0,1.0,0.0,0.75,1.0,,1.0,,
s1,2,weather,1,AnoF,22.0,Training,1,1.0,0.0,1.0,1.0,0.25,1.0,,2.0,,
s1,2,weather,1,AnoF,23.0,Training,1,0.0,1.0,0.0,1.0,0.5,1.0,,,,
s1,2,weather,1,AnoF,24.0,Training,1,0.0,1.0,0.0,0.0,0.75,2.0,,1.0,,
s1,2,weather,1,AnoF,25.0,Training,1,1.0,0.0,0.0,0.0,0.75,1.0,,1.0,,
s1,2,weather,1,AnoF,26.0,Training,1,0.0,0.0,1.0,1.0,0.0,2.0,,2.0,,
s1,2,weather,1,AnoF,27.0,Training,1,0.0,0.0,0.0,1.0,0.25,1.0,,2.0,,
s1,2,weather,1,AnoF,28.0,Training,1,1.0,0.0,1.0,0.0,0.5,1.0,,,,
s1,2,weather,1,AnoF,29.0,Training,1,1.0,0.0,0.0,0.0,0.75,1.0,,1.0,,
s1,2,weather,1,AnoF,30.0,Training,1,0.0,1.0,0.0,0.0,0.75,1.0,,1.0,,
s1,2,weather,1,AnoF,31.0,Training,1,0.0,0.0,0.0,1.0,0.25,2.0,,2.0,,
s1,2,weather,1,AnoF,32.0,Training,1,1.0,1.0,0.0,0.0,1.0,1.0,,1.0,,
s1,2,weather,1,AnoF,33.0,Training,1,1.0,1.0,0.0,0.0,1.0,1.0,,1.0,,
s1,2,weather,1,AnoF,34.0,Training,1,1.0,0.0,1.0,0.0,0.5,2.0,,,,
s1,2,weather,1,AnoF,35.0,Training,1,0.0,0.0,1.0,1.0,0.0,2.0,,2.0,,
s1,2,weather,1,AnoF,36.0,Training,1,0.0,0.0,1.0,0.0,0.25,2.0,,2.0,,
s1,2,weather,1,AnoF,37.0,Training,1,1.0,1.0,0.0,0.0,1.0,1.0,,1.0,,
s1,2,weather,1,AnoF,38.0,Training,1,0.0,1.0,1.0,0.0,0.5,2.0,,,,
s1,2,weather,1,AnoF,39.0,Training,1,1.0,0.0,0.0,1.0,0.5,1.0,,,,
s1,2,weather,1,AnoF,40.0,Training,1,0.0,1.0,0.0,1.0,0.5,2.0,,,,
s1,2,weather,1,AnoF,41.0,Training,1,0.0,0.0,0.0,1.0,0.25,2.0,,2.0,,
s1,2,weather,1,AnoF,42.0,Training,1,0.0,0.0,1.0,1.0,0.0,2.0,,2.0,,
s1,2,weather,1,AnoF,43.0,Training,1,0.0,1.0,0.0,1.0,0.5,2.0,,,,
s1,2,weather,1,AnoF,44.0,Training,1,0.0,1.0,1.0,0.0,0.5,2.0,,,,
s1,2,weather,1,AnoF,45.0,Training,1,1.0,0.0,1.0,0.0,0.5,1.0,,,,
s1,2,weather,1,AnoF,46.0,Training,1,1.0,0.0,0.0,0.0,0.75,1.0,,1.0,,
s1,2,weather,1,AnoF,47.0,Training,1,0.0,1.0,0.0,0.0,0.75,2.0,,1.0,,
s1,2,weather,1,AnoF,48.0,Training,1,1.0,0.0,0.0,0.0,0.75,1.0,,1.0,,
s1,2,weather,1,AnoF,49.0,Training,1,0.0,1.0,0.0,1.0,0.5,2.0,,,,
s1,2,weather,1,AnoF,50.0,Training,1,0.0,1.0,0.0,0.0,0.75,1.0,,1.0,,
s1,2,weather,1,AnoF,51.0,Training,1,1.0,1.0,0.0,0.0,1.0,1.0,,1.0,,
s1,2,weather,1,AnoF,52.0,Training,1,1.0,1.0,0.0,1.0,0.75,2.0,,1.0,,
s1,2,weather,1,AnoF,53.0,Test,1,0.0,1.0,0.0,0.0,0.75,,1.0,1.0,6.497,
s1,2,weather,1,AnoF,54.0,Test,1,0.0,1.0,0.0,1.0,0.5,,1.0,,2.47,
s1,2,weather,1,AnoF,55.0,Test,1,0.0,1.0,1.0,1.0,0.25,,2.0,2.0,1.173,
s1,2,weather,1,AnoF,56.0,Test,1,0.0,0.0,1.0,1.0,0.0,,1.0,2.0,2.486,
s1,2,weather,1,AnoF,57.0,Test,1,1.0,0.0,1.0,1.0,0.25,,1.0,2.0,3.371,
s1,2,weather,1,AnoF,58.0,Test,1,1.0,1.0,1.0,0.0,0.75,,2.0,1.0,2.759,
s1,2,weather,1,AnoF,59.0,Test,1,0.0,1.0,1.0,0.0,0.5,,2.0,,1.435,
s1,2,weather,1,AnoF,60.0,Test,1,1.0,1.0,0.0,0.0,1.0,,2.0,1.0,2.56,
s1,2,weather,1,AnoF,61.0,Test,1,1.0,1.0,0.0,1.0,0.75,,1.0,1.0,2.093,
s1,2,weather,1,AnoF,62.0,Test,1,1.0,0.0,0.0,1.0,0.5,,1.0,,1.117,
s1,2,weather,1,AnoF,63.0,Test,1,0.0,0.0,0.0,1.0,0.25,,1.0,2.0,2.818,
s1,2,weather,1,AnoF,64.0,Test,1,0.0,0.0,1.0,0.0,0.25,,2.0,2.0,1.646,
s1,2,weather,1,AnoF,65.0,Test,1,1.0,0.0,0.0,0.0,0.75,,2.0,1.0,0.802,
s1,2,weather,1,AnoF,66.0,Test,1,1.0,0.0,1.0,0.0,0.5,,2.0,,1.166,
s1,2,disease,1,FnoA,1.0,Training,1,1.0,0.0,1.0,0.0,0.5,2.0,2.0,,6.791,1.0
s1,2,disease,1,FnoA,2.0,Training,1,1.0,0.0,0.0,1.0,0.5,1.0,2.0,,2.081,0.0
s1,2,disease,1,FnoA,3.0,Training,1,1.0,1.0,0.0,0.0,1.0,1.0,2.0,1.0,2.368,0.0
s1,2,disease,1,FnoA,4.0,Training,1,0.0,1.0,0.0,1.0,0.5,1.0,1.0,,1.469,1.0
s1,2,disease,1,FnoA,5.0,Training,1,1.0,1.0,0.0,1.0,0.75,1.0,1.0,1.0,1.648,1.0
s1,2,disease,1,FnoA,6.0,Training,1,0.0,1.0,0.0,0.0,0.75,2.0,1.0,1.0,1.64,0.0
s1,2,disease,1,FnoA,7.0,Training,1,0.0,1.0,1.0,0.0,0.5,1.0,2.0,,0.918,0.0
s1,2,disease,1,FnoA,8.0,Training,1,0.0,1.0,0.0,0.0,0.75,1.0,2.0,1.0,1.096,0.0
s1,2,disease,1,FnoA,9.0,Training,1,0.0,1.0,0.0,1.0,0.5,2.0,1.0,,1.508,0.0
s1,2,disease,1,FnoA,10.0,Training,1,0.0,1.0,1.0,1.0,0.25,1.0,2.0,2.0,1.42,0.0
s1,2,disease,1,FnoA,11.0,Training,1,1.0,1.0,0.0,1.0,0.75,1.0,2.0,1.0,0.0,0.0
s1,2,disease,1,FnoA,12.0,Training,1,1.0,0.0,0.0,1.0,0.5,2.0,2.0,,0.001,1.0
s1,2,disease,1,FnoA,13.0,Training,1,0.0,0.0,1.0,1.0,0.0,2.0,1.0,2.0,0.0,0.0
s1,2,disease,1,FnoA,14.0,Training,1,1.0,1.0,0.0,0.0,1.0,1.0,1.0,1.0,4.129,1.0
s1,2,disease,1,FnoA,15.0,Training,1,0.0,0.0,1.0,1.0,0.0,2.0,2.0,2.0,1.027,1.0
s1,2,disease,1,FnoA,16.0,Training,1,1.0,0.0,1.0,1.0,0.25,2.0,2.0,2.0,1.59,1.0
s1,2,disease,1,FnoA,17.0,Training,1,1.0,1.0,0.0,0.0,1.0,1.0,1.0,1.0,0.813,1.0
s1,2,disease,1,FnoA,18.0,Training,1,0.0,1.0,1.0,1.0,0.25,2.0,2.0,2.0,1.099,1.0
s1,2,disease,1,FnoA,19.0,Training,1,0.0,0.0,0.0,1.0,0.25,1.0,2.0,2.0,1.43,0.0
s1,2,disease,1,FnoA,20.0,Training,1,1.0,0.0,1.0,1.0,0.25,1.0,1.0,2.0,0.899,1.0
s1,2,disease,1,FnoA,21.0,Training,1,1.0,0.0,0.0,0.0,0.75,1.0,1.0,1.0,0.937,1.0
s1,2,disease,1,FnoA,22.0,Training,1,1.0,0.0,0.0,1.0,0.5,2.0,1.0,,0.758,0.0
s1,2,disease,1,FnoA,23.0,Training,1,0.0,0.0,1.0,0.0,0.25,1.0,2.0,2.0,0.819,0.0
s1,2,disease,1,FnoA,24.0,Training,1,0.0,0.0,1.0,1.0,0.0,2.0,1.0,2.0,0.793,0.0
s1,2,disease,1,FnoA,25.0,Training,1,1.0,1.0,1.0,0.0,0.75,2.0,1.0,1.0,0.696,0.0
s1,2,disease,1,FnoA,26.0,Training,1,1.0,0.0,0.0,0.0,0.75,1.0,2.0,1.0,1.252,0.0
s1,2,disease,1,FnoA,27.0,Training,1,0.0,1.0,1.0,1.0,0.25,2.0,2.0,2.0,0.001,1.0
s1,2,disease,1,FnoA,28.0,Training,1,1.0,1.0,1.0,0.0,0.75,1.0,2.0,1.0,1.38,0.0
s1,2,disease,1,FnoA,29.0,Training,1,1.0,0.0,1.0,1.0,0.25,2.0,2.0,2.0,1.262,1.0
s1,2,disease,1,FnoA,30.0,Training,1,1.0,0.0,0.0,1.0,0.5,1.0,2.0,,0.941,0.0
s1,2,disease,1,FnoA,31.0,Training,1,0.0,0.0,1.0,1.0,0.0,2.0,1.0,2.0,1.108,0.0
s1,2,disease,1,FnoA,32.0,Training,1,0.0,1.0,1.0,1.0,0.25,2.0,1.0,2.0,0.564,0.0
s1,2,disease,1,FnoA,33.0,Training,1,1.0,0.0,0.0,0.0,0.75,2.0,1.0,1.0,1.231,0.0
s1,2,disease,1,FnoA,34.0,Training,1,0.0,0.0,0.0,1.0,0.25,2.0,1.0,2.0,0.0,0.0
s1,2,disease,1,FnoA,35.0,Training,1,0.0,1.0,0.0,1.0,0.5,2.0,2.0,,0.808,1.0
s1,2,disease,1,FnoA,36.0,Training,1,1.0,0.0,1.0,0.0,0.5,1.0,2.0,,1.07,0.0
s1,2,disease,1,FnoA,37.0,Training,1,0.0,1.0,1.0,0.0,0.5,2.0,2.0,,0.897,1.0
s1,2,disease,1,FnoA,38.0,Training,1,0.0,0.0,1.0,0.0,0.25,2.0,2.0,2.0,1.106,1.0
s1,2,disease,1,FnoA,39.0,Training,1,0.0,0.0,1.0,0.0,0.25,2.0,2.0,2.0,0.551,1.0
s1,2,disease,1,FnoA,40.0,Training,1,0.0,1.0,1.0,0.0,0.5,1.0,2.0,,0.744,0.0
s1,2,disease,1,FnoA,41.0,Training,1,1.0,0.0,1.0,0.0,0.5,2.0,2.0,,1.175,1.0
s1,2,disease,1,FnoA,42.0,Training,1,1.0,1.0,0.0,0.0,1.0,1.0,1.0,1.0,0.75,1.0
s1,2,disease,1,FnoA,43.0,Training,1,0.0,1.0,1.0,0.0,0.5,2.0,2.0,,1.277,1.0
s1,2,disease,1,FnoA,44.0,Training,1,1.0,1.0,1.0,0.0,0.75,1.0,1.0,1.0,1.125,1.0
s1,2,disease,1,FnoA,45.0,Training,1,1.0,0.0,1.0,0.0,0.5,1.0,2.0,,0.901,0.0
s1,2,disease,1,FnoA,46.0,Training,1,1.0,1.0,1.0,0.0,0.75,1.0,1.0,1.0,0.849,1.0
s1,2,disease,1,FnoA,47.0,Training,1,0.0,0.0,0.0,1.0,0.25,2.0,1.0,2.0,1.211,0.0
s1,2,disease,1,FnoA,48.0,Training,1,1.0,1.0,0.0,1.0,0.75,1.0,2.0,1.0,1.083,0.0
s1,2,disease,1,FnoA,49.0,Training,1,1.0,1.0,0.0,1.0,0.75,2.0,1.0,1.0,1.441,0.0
s1,2,disease,1,FnoA,50.0,Training,1,0.0,1.0,0.0,1.0,0.5,1.0,1.0,,1.327,1.0
s1,2,disease,1,FnoA,51.0,Training,1,0.0,1.0,0.0,0.0,0.75,1.0,2.0,1.0,1.222,0.0
s1,2,disease,1,FnoA,52.0,Training,1,0.0,1.0,0.0,0.0,0.75,1.0,1.0,1.0,0.86,1.0
s1,2,disease,1,FnoA,53.0,Training,1,1.0,0.0,0.0,0.0,0.75,1.0,1.0,1.0,0.906,1.0
s1,2,disease,1,FnoA,54.0,Training,1,0.0,0.0,0.0,1.0,0.25,2.0,2.0,2.0,1.199,1.0
s1,2,disease,1,FnoA,55.0,Training,1,1.0,0.0,1.0,1.0,0.25,2.0,,2.0,1.344,2.0
s1,2,disease,1,FnoA,56.0,Training,1,0.0,0.0,1.0,0.0,0.25,2.0,2.0,2.0,0.816,1.0
s1,2,disease,1,FnoA,57.0,Test,1,1.0,1.0,0.0,0.0,1.0,,2.0,1.0,1.05,
s1,2,disease,1,FnoA,58.0,Test,1,0.0,1.0,0.0,0.0,0.75,,2.0,1.0,1.035,
s1,2,disease,1,FnoA,59.0,Test,1,1.0,0.0,1.0,0.0,0.5,,1.0,,0.876,
s1,2,disease,1,FnoA,60.0,Test,1,0.0,0.0,1.0,0.0,0.25,,2.0,2.0,1.383,
s1,2,disease,1,FnoA,61.0,Test,1,0.0,0.0,0.0,1.0,0.25,,1.0,2.0,0.695,
s1,2,disease,1,FnoA,62.0,Test,1,1.0,1.0,0.0,1.0,0.75,,1.0,1.0,1.844,
s1,2,disease,1,FnoA,63.0,Test,1,0.0,1.0,1.0,0.0,0.5,,1.0,,0.893,
s1,2,disease,1,FnoA,64.0,Test,1,0.0,1.0,0.0,1.0,0.5,,2.0,,1.111,
s1,2,disease,1,FnoA,65.0,Test,1,0.0,0.0,1.0,1.0,0.0,,1.0,2.0,1.268,
s1,2,disease,1,FnoA,66.0,Test,1,1.0,0.0,1.0,1.0,0.25,,1.0,2.0,0.001,
s1,2,disease,1,FnoA,67.0,Test,1,0.0,1.0,1.0,1.0,0.25,,2.0,2.0,2.143,
s1,2,disease,1,FnoA,68.0,Test,1,1.0,0.0,0.0,0.0,0.75,,1.0,1.0,1.018,
s1,2,disease,1,FnoA,69.0,Test,1,1.0,1.0,1.0,0.0,0.75,,2.0,1.0,1.294,
s1,2,disease,1,FnoA,70.0,Test,1,1.0,0.0,0.0,1.0,0.5,,2.0,,0.833,
s10,1,disease,2,AnoF,1.0,Training,1,0.0,1.0,0.0,0.0,0.75,2.0,,1.0,,
s10,1,disease,2,AnoF,2.0,Training,1,1.0,0.0,0.0,0.0,0.75,1.0,,1.0,,
s10,1,disease,2,AnoF,3.0,Training,1,1.0,0.0,0.0,0.0,0.75,1.0,,1.0,,
s10,1,disease,2,AnoF,4.0,Training,1,0.0,1.0,0.0,1.0,0.5,2.0,,,,
s10,1,disease,2,AnoF,5.0,Training,1,0.0,0.0,1.0,0.0,0.25,2.0,,2.0,,
s10,1,disease,2,AnoF,6.0,Training,1,0.0,0.0,0.0,1.0,0.25,2.0,,2.0,,
s10,1,disease,2,AnoF,7.0,Training,1,0.0,1.0,1.0,0.0,0.5,2.0,,,,
s10,1,disease,2,AnoF,8.0,Training,1,1.0,0.0,0.0,0.0,0.75,1.0,,1.0,,
s10,1,disease,2,AnoF,9.0,Training,1,0.0,1.0,0.0,0.0,0.75,2.0,,1.0,,
s10,1,disease,2,AnoF,10.0,Training,1,1.0,0.0,1.0,0.0,0.5,2.0,,,,
s10,1,disease,2,AnoF,11.0,Training,1,0.0,1.0,1.0,0.0,0.5,2.0,,,,
s10,1,disease,2,AnoF,12.0,Training,1,1.0,1.0,0.0,1.0,0.75,1.0,,1.0,,
s10,1,disease,2,AnoF,13.0,Training,1,0.0,0.0,0.0,1.0,0.25,1.0,,2.0,,
s10,1,disease,2,AnoF,14.0,Training,1,0.0,0.0,1.0,0.0,0.25,2.0,,2.0,,
s10,1,disease,2,AnoF,15.0,Training,1,0.0,0.0,1.0,1.0,0.0,2.0,,2.0,,
s10,1,disease,2,AnoF,16.0,Training,1,1.0,0.0,0.0,0.0,0.75,1.0,,1.0,,
s10,1,disease,2,AnoF,17.0,Training,1,0.0,1.0,0.0,1.0,0.5,1.0,,,,
s10,1,disease,2,AnoF,18.0,Training,1,0.0,1.0,0.0,0.0,0.75,1.0,,1.0,,
s10,1,disease,2,AnoF,19.0,Training,1,1.0,1.0,0.0,0.0,1.0,1.0,,1.0,,
s10,1,disease,2,AnoF,20.0,Training,1,1.0,0.0,1.0,1.0,0.25,1.0,,2.0,,
s10,1,disease,2,AnoF,21.0,Training,1,0.0,1.0,0.0,1.0,0.5,2.0,,,,
s10,1,disease,2,AnoF,22.0,Training,1,0.0,0.0,1.0,1.0,0.0,2.0,,2.0,,
s10,1,disease,2,AnoF,23.0,Training,1,0.0,0.0,0.0,1.0,0.25,2.0,,2.0,,
s10,1,disease,2,AnoF,24.0,Training,1,1.0,1.0,0.0,0.0,1.0,1.0,,1.0,,
s10,1,disease,2,AnoF,25.0,Training,1,0.0,0.0,0.0,1.0,0.25,2.0,,2.0,,
s10,1,disease,2,AnoF,26.0,Training,1,1.0,0.0,0.0,0.0,0.75,2.0,,1.0,,
s10,1,disease,2,AnoF,27.0,Training,1,1.0,0.0,0.0,0.0,0.75,1.0,,1.0,,
s10,1,disease,2,AnoF,28.0,Training,1,1.0,1.0,0.0,0.0,1.0,1.0,,1.0,,
s10,1,disease,2,AnoF,29.0,Training,1,0.0,1.0,0.0,0.0,0.75,2.0,,1.0,,
s10,1,disease,2,AnoF,30.0,Training,1,0.0,0.0,1.0,1.0,0.0,2.0,,2.0,,
s10,1,disease,2,AnoF,31.0,Training,1,0.0,0.0,1.0,1.0,0.0,2.0,,2.0,,
s10,1,disease,2,AnoF,32.0,Training,1,0.0,0.0,0.0,1.0,0.25,2.0,,2.0,,
s10,1,disease,2,AnoF,33.0,Training,1,1.0,0.0,1.0,1.0,0.25,2.0,,2.0,,
s10,1,disease,2,AnoF,34.0,Training,1,1.0,0.0,1.0,0.0,0.5,1.0,,,,
s10,1,disease,2,AnoF,35.0,Training,1,1.0,0.0,0.0,1.0,0.5,2.0,,,,
s10,1,disease,2,AnoF,36.0,Training,1,1.0,0.0,1.0,0.0,0.5,1.0,,,,
s10,1,disease,2,AnoF,37.0,Training,1,1.0,0.0,0.0,1.0,0.5,1.0,,,,
s10,1,disease,2,AnoF,38.0,Training,1,0.0,0.0,0.0,1.0,0.25,2.0,,2.0,,
s10,1,disease,2,AnoF,39.0,Training,1,0.0,1.0,0.0,1.0,0.5,2.0,,,,
s10,1,disease,2,AnoF,40.0,Training,1,0.0,1.0,0.0,0.0,0.75,1.0,,1.0,,
s10,1,disease,2,AnoF,41.0,Training,1,0.0,0.0,1.0,0.0,0.25,1.0,,2.0,,
s10,1,disease,2,AnoF,42.0,Training,1,0.0,0.0,1.0,0.0,0.25,2.0,,2.0,,
s10,1,disease,2,AnoF,43.0,Training,1,0.0,1.0,1.0,1.0,0.25,2.0,,2.0,,
s10,1,disease,2,AnoF,44.0,Training,1,1.0,0.0,0.0,0.0,0.75,1.0,,1.0,,
s10,1,disease,2,AnoF,45.0,Training,1,0.0,1.0,0.0,0.0,0.75,1.0,,1.0,,
s10,1,disease,2,AnoF,46.0,Training,1,0.0,0.0,0.0,1.0,0.25,2.0,,2.0,,
s10,1,disease,2,AnoF,47.0,Training,1,1.0,0.0,1.0,0.0,0.5,1.0,,,,
s10,1,disease,2,AnoF,48.0,Training,1,0.0,0.0,1.0,0.0,0.25,1.0,,2.0,,
s10,1,disease,2,AnoF,49.0,Training,1,1.0,1.0,0.0,0.0,1.0,1.0,,1.0,,
s10,1,disease,2,AnoF,50.0,Training,1,1.0,1.0,1.0,0.0,0.75,1.0,,1.0,,
s10,1,disease,2,AnoF,51.0,Training,1,1.0,1.0,0.0,1.0,0.75,2.0,,1.0,,
s10,1,disease,2,AnoF,52.0,Training,1,0.0,0.0,1.0,0.0,0.25,1.0,,2.0,,
s10,1,disease,2,AnoF,53.0,Test,1,0.0,1.0,0.0,1.0,0.5,,2.0,,1.271,
s10,1,disease,2,AnoF,54.0,Test,1,1.0,1.0,0.0,0.0,1.0,,1.0,1.0,1.164,
s10,1,disease,2,AnoF,55.0,Test,1,1.0,1.0,1.0,0.0,0.75,,2.0,1.0,1.888,
s10,1,disease,2,AnoF,56.0,Test,1,0.0,0.0,1.0,0.0,0.25,,1.0,2.0,1.876,
s10,1,disease,2,AnoF,57.0,Test,1,1.0,0.0,1.0,1.0,0.25,,1.0,2.0,1.446,
s10,1,disease,2,AnoF,58.0,Test,1,1.0,1.0,0.0,1.0,0.75,,2.0,1.0,1.202,
s10,1,disease,2,AnoF,59.0,Test,1,0.0,0.0,1.0,1.0,0.0,,2.0,2.0,0.95,
s10,1,disease,2,AnoF,60.0,Test,1,0.0,1.0,1.0,0.0,0.5,,1.0,,1.5,
s10,1,disease,2,AnoF,61.0,Test,1,0.0,1.0,1.0,1.0,0.25,,2.0,2.0,0.9,
s10,1,disease,2,AnoF,62.0,Test,1,0.0,0.0,0.0,1.0,0.25,,2.0,2.0,1.081,
s10,1,disease,2,AnoF,63.0,Test,1,1.0,0.0,1.0,0.0,0.5,,1.0,,1.095,
s10,1,disease,2,AnoF,64.0,Test,1,0.0,1.0,0.0,0.0,0.75,,2.0,1.0,0.811,
s10,1,disease,2,AnoF,65.0,Test,1,1.0,0.0,0.0,1.0,0.5,,1.0,,1.127,
s10,1,disease,2,AnoF,66.0,Test,1,1.0,0.0,0.0,0.0,0.75,,1.0,1.0,0.944,
s10,1,weather,2,FnoA,1.0,Training,1,1.0,0.0,0.0,0.0,0.75,2.0,1.0,1.0,1.088,0.0
s10,1,weather,2,FnoA,2.0,Training,1,0.0,0.0,1.0,0.0,0.25,1.0,2.0,2.0,2.768,0.0
s10,1,weather,2,FnoA,3.0,Training,1,1.0,1.0,0.0,0.0,1.0,1.0,1.0,1.0,2.488,1.0
s10,1,weather,2,FnoA,4.0,Training,1,0.0,1.0,1.0,1.0,0.25,2.0,2.0,2.0,1.797,1.0
s10,1,weather,2,FnoA,5.0,Training,1,0.0,1.0,1.0,1.0,0.25,1.0,1.0,2.0,0.956,1.0
s10,1,weather,2,FnoA,6.0,Training,1,0.0,1.0,1.0,1.0,0.25,2.0,2.0,2.0,0.939,1.0
s10,1,weather,2,FnoA,7.0,Training,1,0.0,1.0,0.0,1.0,0.5,2.0,2.0,,1.086,1.0
s10,1,weather,2,FnoA,8.0,Training,1,0.0,0.0,1.0,1.0,0.0,2.0,1.0,2.0,0.776,0.0
s10,1,weather,2,FnoA,9.0,Training,1,1.0,1.0,0.0,1.0,0.75,1.0,1.0,1.0,1.223,1.0
s10,1,weather,2,FnoA,10.0,Training,1,0.0,1.0,0.0,1.0,0.5,1.0,2.0,,0.844,0.0
s10,1,weather,2,FnoA,11.0,Training,1,0.0,0.0,0.0,1.0,0.25,2.0,1.0,2.0,1.756,0.0
s10,1,weather,2,FnoA,12.0,Training,1,1.0,1.0,0.0,1.0,0.75,2.0,1.0,1.0,1.295,0.0
s10,1,weather,2,FnoA,13.0,Training,1,0.0,0.0,1.0,0.0,0.25,2.0,2.0,2.0,1.545,1.0
s10,1,weather,2,FnoA,14.0,Training,1,1.0,1.0,1.0,0.0,0.75,2.0,1.0,1.0,0.618,0.0
s10,1,weather,2,FnoA,15.0,Training,1,1.0,1.0,0.0,0.0,1.0,1.0,1.0,1.0,2.105,1.0
s10,1,weather,2,FnoA,16.0,Training,1,0.0,1.0,0.0,0.0,0.75,1.0,1.0,1.0,0.78,1.0
s10,1,weather,2,FnoA,17.0,Training,1,0.0,0.0,1.0,1.0,0.0,2.0,2.0,2.0,0.873,1.0
s10,1,weather,2,FnoA,18.0,Training,1,1.0,0.0,0.0,1.0,0.5,1.0,1.0,,2.31,1.0
s10,1,weather,2,FnoA,19.0,Training,1,0.0,0.0,0.0,1.0,0.25,2.0,2.0,2.0,0.887,1.0
s10,1,weather,2,FnoA,20.0,Training,1,1.0,0.0,1.0,1.0,0.25,1.0,2.0,2.0,2.016,0.0
s10,1,weather,2,FnoA,21.0,Training,1,0.0,1.0,0.0,1.0,0.5,1.0,2.0,,1.718,0.0
s10,1,weather,2,FnoA,22.0,Training,1,1.0,1.0,1.0,0.0,0.75,1.0,1.0,1.0,1.482,1.0
s10,1,weather,2,FnoA,23.0,Training,1,1.0,1.0,0.0,1.0,0.75,1.0,1.0,1.0,2.372,1.0
s10,1,weather,2,FnoA,24.0,Training,1,0.0,1.0,1.0,0.0,0.5,2.0,2.0,,1.259,1.0
s10,1,weather,2,FnoA,25.0,Training,1,1.0,0.0,1.0,1.0,0.25,2.0,1.0,2.0,0.644,0.0
s10,1,weather,2,FnoA,26.0,Training,1,0.0,1.0,1.0,0.0,0.5,2.0,2.0,,1.811,1.0
s10,1,weather,2,FnoA,27.0,Training,1,1.0,0.0,0.0,0.0,0.75,1.0,1.0,1.0,1.019,1.0
s10,1,weather,2,FnoA,28.0,Training,1,0.0,0.0,1.0,0.0,0.25,2.0,2.0,2.0,1.492,1.0
s10,1,weather,2,FnoA,29.0,Training,1,0.0,0.0,1.0,1.0,0.0,2.0,2.0,2.0,0.983,1.0
s10,1,weather,2,FnoA,30.0,Training,1,1.0,1.0,1.0,0.0,0.75,1.0,1.0,1.0,1.583,1.0
s10,1,weather,2,FnoA,31.0,Training,1,1.0,0.0,0.0,1.0,0.5,2.0,1.0,,2.192,0.0
s10,1,weather,2,FnoA,32.0,Training,1,1.0,0.0,0.0,0.0,0.75,1.0,1.0,1.0,1.138,1.0
s10,1,weather,2,FnoA,33.0,Training,1,0.0,1.0,0.0,0.0,0.75,2.0,1.0,1.0,1.722,0.0
s10,1,weather,2,FnoA,34.0,Training,1,0.0,0.0,0.0,1.0,0.25,1.0,2.0,2.0,0.973,0.0
s10,1,weather,2,FnoA,35.0,Training,1,1.0,0.0,1.0,0.0,0.5,2.0,1.0,,1.219,0.0
s10,1,weather,2,FnoA,36.0,Training,1,1.0,0.0,1.0,0.0,0.5,1.0,2.0,,1.056,0.0
s10,1,weather,2,FnoA,37.0,Training,1,1.0,0.0,0.0,1.0,0.5,2.0,1.0,,0.895,0.0
s10,1,weather,2,FnoA,38.0,Training,1,1.0,0.0,1.0,0.0,0.5,1.0,1.0,,1.421,1.0
s10,1,weather,2,FnoA,39.0,Training,1,1.0,1.0,0.0,0.0,1.0,1.0,2.0,1.0,0.991,0.0
s10,1,weather,2,FnoA,40.0,Training,1,1.0,1.0,1.0,0.0,0.75,1.0,1.0,1.0,0.911,1.0
s10,1,weather,2,FnoA,41.0,Training,1,0.0,1.0,0.0,0.0,0.75,1.0,2.0,1.0,0.726,0.0
s10,1,weather,2,FnoA,42.0,Training,1,1.0,1.0,0.0,1.0,0.75,1.0,1.0,1.0,1.789,1.0
s10,1,weather,2,FnoA,43.0,Training,1,0.0,0.0,1.0,1.0,0.0,2.0,2.0,2.0,1.258,1.0
s10,1,weather,2,FnoA,44.0,Training,1,0.0,1.0,0.0,1.0,0.5,2.0,1.0,,1.592,0.0
s10,1,weather,2,FnoA,45.0,Training,1,1.0,1.0,0.0,0.0,1.0,1.0,1.0,1.0,2.027,1.0
s10,1,weather,2,FnoA,46.0,Training,1,0.0,0.0,0.0,1.0,0.25,2.0,2.0,2.0,0.93,1.0
s10,1,weather,2,FnoA,47.0,Training,1,0.0,1.0,1.0,0.0,0.5,1.0,1.0,,0.765,1.0
s10,1,weather,2,FnoA,48.0,Training,1,0.0,1.0,1.0,0.0,0.5,1.0,2.0,,0.8,0.0
s10,1,weather,2,FnoA,49.0,Training,1,0.0,1.0,0.0,0.0,0.75,1.0,2.0,1.0,1.355,0.0
s10,1,weather,2,FnoA,50.0,Training,1,1.0,0.0,0.0,1.0,0.5,1.0,1.0,,0.898,1.0
s10,1,weather,2,FnoA,51.0,Training,1,1.0,0.0,0.0,0.0,0.75,1.0,1.0,1.0,1.402,1.0
s10,1,weather,2,FnoA,52.0,Training,1,1.0,0.0,1.0,1.0,0.25,2.0,2.0,2.0,2.272,1.0
s10,1,weather,2,FnoA,53.0,Training,0,0.0,1.0,1.0,1.0,0.25,2.0,,2.0,2.678,
s10,1,weather,2,FnoA,54.0,Training,0,1.0,0.0,1.0,1.0,0.25,2.0,,2.0,2.193,
s10,1,weather,2,FnoA,55.0,Training,0,1.0,0.0,1.0,0.0,0.5,2.0,,,0.94,
s10,1,weather,2,FnoA,56.0,Training,0,0.0,0.0,1.0,0.0,0.25,2.0,,2.0,0.777,
s10,1,weather,2,FnoA,57.0,Test,1,1.0,1.0,0.0,1.0,0.75,,1.0,1.0,0.853,
s10,1,weather,2,FnoA,58.0,Test,1,0.0,1.0,1.0,0.0,0.5,,2.0,,0.979,
s10,1,weather,2,FnoA,59.0,Test,1,0.0,0.0,1.0,0.0,0.25,,2.0,2.0,1.54,
s10,1,weather,2,FnoA,60.0,Test,1,1.0,0.0,0.0,0.0,0.75,,1.0,1.0,0.755,
s10,1,weather,2,FnoA,61.0,Test,1,1.0,0.0,1.0,1.0,0.25,,2.0,2.0,1.905,
s10,1,weather,2,FnoA,62.0,Test,1,0.0,1.0,1.0,1.0,0.25,,1.0,2.0,2.978,
s10,1,weather,2,FnoA,63.0,Test,1,1.0,1.0,0.0,0.0,1.0,,1.0,1.0,1.322,
s10,1,weather,2,FnoA,64.0,Test,1,0.0,1.0,0.0,0.0,0.75,,2.0,1.0,2.027,
s10,1,weather,2,FnoA,65.0,Test,1,0.0,1.0,0.0,1.0,0.5,,2.0,,0.968,
s10,1,weather,2,FnoA,66.0,Test,1,1.0,1.0,1.0,0.0,0.75,,1.0,1.0,1.188,
s10,1,weather,2,FnoA,67.0,Test,1,0.0,0.0,1.0,1.0,0.0,,2.0,2.0,2.3,
s10,1,weather,2,FnoA,68.0,Test,1,1.0,0.0,1.0,0.0,0.5,,1.0,,2.06,
s10,1,weather,2,FnoA,69.0,Test,1,1.0,0.0,0.0,1.0,0.5,,1.0,,1.921,
s10,1,weather,2,FnoA,70.0,Test,1,0.0,0.0,0.0,1.0,0.25,,2.0,2.0,1.222,
s11,2,disease,3,AnoF,1.0,Training,1,1.0,0.0,0.0,0.0,0.75,2.0,,1.0,,
s11,2,disease,3,AnoF,2.0,Training,1,0.0,0.0,1.0,1.0,0.0,2.0,,2.0,,
s11,2,disease,3,AnoF,3.0,Training,1,1.0,0.0,0.0,0.0,0.75,1.0,,1.0,,
s11,2,disease,3,AnoF,4.0,Training,1,0.0,0.0,1.0,0.0,0.25,1.0,,2.0,,
s11,2,disease,3,AnoF,5.0,Training,1,0.0,0.0,1.0,0.0,0.25,2.0,,2.0,,
s11,2,disease,3,AnoF,6.0,Training,1,0.0,0.0,1.0,0.0,0.25,1.0,,2.0,,
s11,2,disease,3,AnoF,7.0,Training,1,0.0,1.0,1.0,1.0,0.25,2.0,,2.0,,
s11,2,disease,3,AnoF,8.0,Training,1,0.0,0.0,0.0,1.0,0.25,2.0,,2.0,,
s11,2,disease,3,AnoF,9.0,Training,1,1.0,0.0,1.0,1.0,0.25,2.0,,2.0,,
s11,2,disease,3,AnoF,10.0,Training,1,0.0,0.0,1.0,0.0,0.25,2.0,,2.0,,
s11,2,disease,3,AnoF,11.0,Training,1,0.0,0.0,0.0,1.0,0.25,2.0,,2.0,,
s11,2,disease,3,AnoF,12.0,Training,1,1.0,1.0,0.0,1.0,0.75,1.0,,1.0,,
s11,2,disease,3,AnoF,13.0,Training,1,0.0,0.0,1.0,0.0,0.25,1.0,,2.0,,
s11,2,disease,3,AnoF,14.0,Training,1,1.0,0.0,0.0,1.0,0.5,2.0,,,,
s11,2,disease,3,AnoF,15.0,Training,1,1.0,0.0,0.0,0.0,0.75,1.0,,1.0,,
s11,2,disease,3,AnoF,16.0,Training,1,0.0,1.0,0.0,0.0,0.75,1.0,,1.0,,
s11,2,disease,3,AnoF,17.0,Training,1,0.0,0.0,0.0,1.0,0.25,2.0,,2.0,,
s11,2,disease,3,AnoF,18.0,Training,1,1.0,0.0,1.0,0.0,0.5,1.0,,,,
s11,2,disease,3,AnoF,19.0,Training,1,0.0,0.0,0.0,1.0,0.25,2.0,,2.0,,
s11,2,disease,3,AnoF,20.0,Training,1,0.0,1.0,0.0,0.0,0.75,2.0,,1.0,,
s11,2,disease,3,AnoF,21.0,Training,1,1.0,1.0,1.0,0.0,0.75,1.0,,1.0,,
s11,2,disease,3,AnoF,22.0,Training,1,1.0,0.0,1.0,1.0,0.25,1.0,,2.0,,
s11,2,disease,3,AnoF,23.0,Training,1,0.0,1.0,0.0,1.0,0.5,1.0,,,,
s11,2,disease,3,AnoF,24.0,Training,1,0.0,1.0,0.0,0.0,0.75,2.0,,1.0,,
s11,2,disease,3,AnoF,25.0,Training,1,1.0,0.0,0.0,0.0,0.75,1.0,,1.0,,
s11,2,disease,3,AnoF,26.0,Training,1,0.0,0.0,1.0,1.0,0.0,2.0,,2.0,,
s11,2,disease,3,AnoF,27.0,Training,1,0.0,0.0,0.0,1.0,0.25,1.0,,2.0,,
s11,2,disease,3,AnoF,28.0,Training,1,1.0,0.0,1.0,0.0,0.5,1.0,,,,
s11,2,disease,3,AnoF,29.0,Training,1,1.0,0.0,0.0,0.0,0.75,1.0,,1.0,,
s11,2,disease,3,AnoF,30.0,Training,1,0.0,1.0,0.0,0.0,0.75,1.0,,1.0,,
s11,2,disease,3,AnoF,31.0,Training,1,0.0,0.0,0.0,1.0,0.25,2.0,,2.0,,
s11,2,disease,3,AnoF,32.0,Training,1,1.0,1.0,0.0,0.0,1.0,1.0,,1.0,,
s11,2,disease,3,AnoF,33.0,Training,1,1.0,1.0,0.0,0.0,1.0,1.0,,1.0,,
s11,2,disease,3,AnoF,34.0,Training,1,1.0,0.0,1.0,0.0,0.5,2.0,,,,
s11,2,disease,3,AnoF,35.0,Training,1,0.0,0.0,1.0,1.0,0.0,2.0,,2.0,,
s11,2,disease,3,AnoF,36.0,Training,1,0.0,0.0,1.0,0.0,0.25,2.0,,2.0,,
s11,2,disease,3,AnoF,37.0,Training,1,1.0,1.0,0.0,0.0,1.0,1.0,,1.0,,
s11,2,disease,3,AnoF,38.0,Training,1,0.0,1.0,1.0,0.0,0.5,2.0,,,,
s11,2,disease,3,AnoF,39.0,Training,1,1.0,0.0,0.0,1.0,0.5,1.0,,,,
s11,2,disease,3,AnoF,40.0,Training,1,0.0,1.0,0.0,1.0,0.5,2.0,,,,
s11,2,disease,3,AnoF,41.0,Training,1,0.0,0.0,0.0,1.0,0.25,2.0,,2.0,,
s11,2,disease,3,AnoF,42.0,Training,1,0.0,0.0,1.0,1.0,0.0,2.0,,2.0,,
s11,2,disease,3,AnoF,43.0,Training,1,0.0,1.0,0.0,1.0,0.5,2.0,,,,
s11,2,disease,3,AnoF,44.0,Training,1,0.0,1.0,1.0,0.0,0.5,2.0,,,,
s11,2,disease,3,AnoF,45.0,Training,1,1.0,0.0,1.0,0.0,0.5,1.0,,,,
s11,2,disease,3,AnoF,46.0,Training,1,1.0,0.0,0.0,0.0,0.75,1.0,,1.0,,
s11,2,disease,3,AnoF,47.0,Training,1,0.0,1.0,0.0,0.0,0.75,2.0,,1.0,,
s11,2,disease,3,AnoF,48.0,Training,1,1.0,0.0,0.0,0.0,0.75,1.0,,1.0,,
s11,2,disease,3,AnoF,49.0,Training,1,0.0,1.0,0.0,1.0,0.5,2.0,,,,
s11,2,disease,3,AnoF,50.0,Training,1,0.0,1.0,0.0,0.0,0.75,1.0,,1.0,,
s11,2,disease,3,AnoF,51.0,Training,1,1.0,1.0,0.0,0.0,1.0,1.0,,1.0,,
s11,2,disease,3,AnoF,52.0,Training,1,1.0,1.0,0.0,1.0,0.75,2.0,,1.0,,
s11,2,disease,3,AnoF,53.0,Test,1,0.0,1.0,0.0,0.0,0.75,,1.0,1.0,6.498,
s11,2,disease,3,AnoF,54.0,Test,1,0.0,1.0,0.0,1.0,0.5,,2.0,,6.659,
s11,2,disease,3,AnoF,55.0,Test,1,0.0,1.0,1.0,1.0,0.25,,2.0,2.0,2.618,
s11,2,disease,3,AnoF,56.0,Test,1,0.0,0.0,1.0,1.0,0.0,,2.0,2.0,4.366,
s11,2,disease,3,AnoF,57.0,Test,1,1.0,0.0,1.0,1.0,0.25,,2.0,2.0,1.992,
s11,2,disease,3,AnoF,58.0,Test,1,1.0,1.0,1.0,0.0,0.75,,1.0,1.0,0.828,
s11,2,disease,3,AnoF,59.0,Test,1,0.0,1.0,1.0,0.0,0.5,,1.0,,0.891,
s11,2,disease,3,AnoF,60.0,Test,1,1.0,1.0,0.0,0.0,1.0,,1.0,1.0,0.444,
s11,2,disease,3,AnoF,61.0,Test,1,1.0,1.0,0.0,1.0,0.75,,1.0,1.0,0.76,
s11,2,disease,3,AnoF,62.0,Test,1,1.0,0.0,0.0,1.0,0.5,,2.0,,0.707,
s11,2,disease,3,AnoF,63.0,Test,1,0.0,0.0,0.0,1.0,0.25,,2.0,2.0,0.468,
s11,2,disease,3,AnoF,64.0,Test,1,0.0,0.0,1.0,0.0,0.25,,1.0,2.0,1.026,
s11,2,disease,3,AnoF,65.0,Test,1,1.0,0.0,0.0,0.0,0.75,,1.0,1.0,0.71,
s11,2,disease,3,AnoF,66.0,Test,1,1.0,0.0,1.0,0.0,0.5,,1.0,,0.738,
s11,2,weather,3,FnoA,2.0,Training,1,1.0,0.0,0.0,1.0,0.5,1.0,2.0,,2.652,0.0
s11,2,weather,3,FnoA,4.0,Training,1,0.0,1.0,0.0,1.0,0.5,1.0,1.0,,4.082,1.0
s11,2,weather,3,FnoA,5.0,Training,1,1.0,1.0,0.0,1.0,0.75,1.0,1.0,1.0,1.279,1.0
s11,2,weather,3,FnoA,6.0,Training,1,0.0,1.0,0.0,0.0,0.75,2.0,1.0,1.0,0.457,0.0
s11,2,weather,3,FnoA,7.0,Training,1,0.0,1.0,1.0,0.0,0.5,1.0,1.0,,1.184,1.0
s11,2,weather,3,FnoA,8.0,Training,1,0.0,1.0,0.0,0.0,0.75,1.0,1.0,1.0,0.641,1.0
s11,2,weather,3,FnoA,9.0,Training,1,0.0,1.0,0.0,1.0,0.5,2.0,1.0,,0.645,0.0
s11,2,weather,3,FnoA,10.0,Training,1,0.0,1.0,1.0,1.0,0.25,1.0,1.0,2.0,0.712,1.0
s11,2,weather,3,FnoA,11.0,Training,1,1.0,1.0,0.0,1.0,0.75,1.0,2.0,1.0,1.462,0.0
s11,2,weather,3,FnoA,12.0,Training,1,1.0,0.0,0.0,1.0,0.5,2.0,2.0,,1.035,1.0
s11,2,weather,3,FnoA,13.0,Training,1,0.0,0.0,1.0,1.0,0.0,2.0,2.0,2.0,1.014,1.0
s11,2,weather,3,FnoA,14.0,Training,1,1.0,1.0,0.0,0.0,1.0,1.0,2.0,1.0,1.631,0.0
s11,2,weather,3,FnoA,15.0,Training,1,0.0,0.0,1.0,1.0,0.0,2.0,2.0,2.0,1.049,1.0
s11,2,weather,3,FnoA,16.0,Training,1,1.0,0.0,1.0,1.0,0.25,2.0,2.0,2.0,3.34,1.0
s11,2,weather,3,FnoA,17.0,Training,1,1.0,1.0,0.0,0.0,1.0,1.0,1.0,1.0,1.228,1.0
s11,2,weather,3,FnoA,18.0,Training,1,0.0,1.0,1.0,1.0,0.25,2.0,1.0,2.0,1.841,0.0
s11,2,weather,3,FnoA,19.0,Training,1,0.0,0.0,0.0,1.0,0.25,1.0,2.0,2.0,2.144,0.0
s11,2,weather,3,FnoA,20.0,Training,1,1.0,0.0,1.0,1.0,0.25,1.0,2.0,2.0,1.245,0.0
s11,2,weather,3,FnoA,21.0,Training,1,1.0,0.0,0.0,0.0,0.75,1.0,2.0,1.0,1.27,0.0
s11,2,weather,3,FnoA,22.0,Training,1,1.0,0.0,0.0,1.0,0.5,2.0,1.0,,0.985,0.0
s11,2,weather,3,FnoA,23.0,Training,1,0.0,0.0,1.0,0.0,0.25,1.0,2.0,2.0,1.993,0.0
s11,2,weather,3,FnoA,24.0,Training,1,0.0,0.0,1.0,1.0,0.0,2.0,1.0,2.0,1.375,0.0
s11,2,weather,3,FnoA,25.0,Training,1,1.0,1.0,1.0,0.0,0.75,2.0,1.0,1.0,1.176,0.0
s11,2,weather,3,FnoA,26.0,Training,1,1.0,0.0,0.0,0.0,0.75,1.0,1.0,1.0,0.933,1.0
s11,2,weather,3,FnoA,27.0,Training,1,0.0,1.0,1.0,1.0,0.25,2.0,1.0,2.0,0.939,0.0
s11,2,weather,3,FnoA,28.0,Training,1,1.0,1.0,1.0,0.0,0.75,1.0,2.0,1.0,3.182,0.0
s11,2,weather,3,FnoA,29.0,Training,1,1.0,0.0,1.0,1.0,0.25,2.0,2.0,2.0,0.93,1.0
s11,2,weather,3,FnoA,30.0,Training,1,1.0,0.0,0.0,1.0,0.5,1.0,2.0,,0.991,0.0
s11,2,weather,3,FnoA,31.0,Training,1,0.0,0.0,1.0,1.0,0.0,2.0,1.0,2.0,1.008,0.0
s11,2,weather,3,FnoA,32.0,Training,1,0.0,1.0,1.0,1.0,0.25,2.0,1.0,2.0,1.185,0.0
s11,2,weather,3,FnoA,33.0,Training,1,1.0,0.0,0.0,0.0,0.75,2.0,2.0,1.0,1.676,1.0
s11,2,weather,3,FnoA,34.0,Training,1,0.0,0.0,0.0,1.0,0.25,2.0,2.0,2.0,1.312,1.0
s11,2,weather,3,FnoA,35.0,Training,1,0.0,1.0,0.0,1.0,0.5,2.0,1.0,,0.697,0.0
s11,2,weather,3,FnoA,36.0,Training,1,1.0,0.0,1.0,0.0,0.5,1.0,1.0,,1.996,1.0
s11,2,weather,3,FnoA,37.0,Training,1,0.0,1.0,1.0,0.0,0.5,2.0,1.0,,2.25,0.0
s11,2,weather,3,FnoA,38.0,Training,1,0.0,0.0,1.0,0.0,0.25,2.0,2.0,2.0,1.501,1.0
s11,2,weather,3,FnoA,39.0,Training,1,0.0,0.0,1.0,0.0,0.25,2.0,2.0,2.0,0.448,1.0
s11,2,weather,3,FnoA,40.0,Training,1,0.0,1.0,1.0,0.0,0.5,1.0,2.0,,0.767,0.0
s11,2,weather,3,FnoA,41.0,Training,1,1.0,0.0,1.0,0.0,0.5,2.0,1.0,,0.689,0.0
s11,2,weather,3,FnoA,42.0,Training,1,1.0,1.0,0.0,0.0,1.0,1.0,1.0,1.0,1.369,1.0
s11,2,weather,3,FnoA,43.0,Training,1,0.0,1.0,1.0,0.0,0.5,2.0,1.0,,0.787,0.0
s11,2,weather,3,FnoA,44.0,Training,1,1.0,1.0,1.0,0.0,0.75,1.0,2.0,1.0,1.052,0.0
s11,2,weather,3,FnoA,45.0,Training,1,1.0,0.0,1.0,0.0,0.5,1.0,2.0,,0.696,0.0
s11,2,weather,3,FnoA,46.0,Training,1,1.0,1.0,1.0,0.0,0.75,1.0,1.0,1.0,1.043,1.0
s11,2,weather,3,FnoA,47.0,Training,1,0.0,0.0,0.0,1.0,0.25,2.0,2.0,2.0,1.435,1.0
s11,2,weather,3,FnoA,48.0,Training,1,1.0,1.0,0.0,1.0,0.75,1.0,2.0,1.0,2.189,0.0
s11,2,weather,3,FnoA,49.0,Training,1,1.0,1.0,0.0,1.0,0.75,2.0,1.0,1.0,0.704,0.0
s11,2,weather,3,FnoA,50.0,Training,1,0.0,1.0,0.0,1.0,0.5,1.0,1.0,,2.562,1.0
s11,2,weather,3,FnoA,51.0,Training,1,0.0,1.0,0.0,0.0,0.75,1.0,1.0,1.0,0.796,1.0
s11,2,weather,3,FnoA,52.0,Training,1,0.0,1.0,0.0,0.0,0.75,1.0,1.0,1.0,0.63,1.0
s11,2,weather,3,FnoA,53.0,Training,1,1.0,0.0,0.0,0.0,0.75,1.0,1.0,1.0,0.783,1.0
s11,2,weather,3,FnoA,54.0,Training,1,0.0,0.0,0.0,1.0,0.25,2.0,2.0,2.0,0.745,1.0
s11,2,weather,3,FnoA,55.0,Training,1,1.0,0.0,1.0,1.0,0.25,2.0,,2.0,0.886,2.0
s11,2,weather,3,FnoA,56.0,Training,1,0.0,0.0,1.0,0.0,0.25,2.0,2.0,2.0,2.12,1.0
s11,2,weather,3,FnoA,57.0,Test,1,1.0,1.0,0.0,0.0,1.0,,2.0,1.0,8.777,
s11,2,weather,3,FnoA,58.0,Test,1,0.0,1.0,0.0,0.0,0.75,,1.0,1.0,5.921,
s11,2,weather,3,FnoA,59.0,Test,1,1.0,0.0,1.0,0.0,0.5,,2.0,,4.906,
s11,2,weather,3,FnoA,60.0,Test,1,0.0,0.0,1.0,0.0,0.25,,2.0,2.0,1.383,
s11,2,weather,3,FnoA,61.0,Test,1,0.0,0.0,0.0,1.0,0.25,,2.0,2.0,2.094,
s11,2,weather,3,FnoA,62.0,Test,1,1.0,1.0,0.0,1.0,0.75,,2.0,1.0,1.736,
s11,2,weather,3,FnoA,63.0,Test,1,0.0,1.0,1.0,0.0,0.5,,1.0,,1.208,
s11,2,weather,3,FnoA,64.0,Test,1,0.0,1.0,0.0,1.0,0.5,,1.0,,0.657,
s11,2,weather,3,FnoA,65.0,Test,1,0.0,0.0,1.0,1.0,0.0,,2.0,2.0,1.076,
s11,2,weather,3,FnoA,66.0,Test,1,1.0,0.0,1.0,1.0,0.25,,2.0,2.0,2.872,
s11,2,weather,3,FnoA,67.0,Test,1,0.0,1.0,1.0,1.0,0.25,,1.0,2.0,1.986,
s11,2,weather,3,FnoA,68.0,Test,1,1.0,0.0,0.0,0.0,0.75,,2.0,1.0,1.724,
s11,2,weather,3,FnoA,69.0,Test,1,1.0,1.0,1.0,0.0,0.75,,1.0,1.0,5.951,
s11,2,weather,3,FnoA,70.0,Test,1,1.0,0.0,0.0,1.0,0.5,,2.0,,2.61,
s12,1,weather,4,AnoF,1.0,Training,1,0.0,1.0,0.0,0.0,0.75,2.0,,1.0,,
s12,1,weather,4,AnoF,2.0,Training,1,1.0,0.0,0.0,0.0,0.75,1.0,,1.0,,
s12,1,weather,4,AnoF,3.0,Training,1,1.0,0.0,0.0,0.0,0.75,1.0,,1.0,,
s12,1,weather,4,AnoF,4.0,Training,1,0.0,1.0,0.0,1.0,0.5,2.0,,,,
s12,1,weather,4,AnoF,5.0,Training,1,0.0,0.0,1.0,0.0,0.25,2.0,,2.0,,
s12,1,weather,4,AnoF,6.0,Training,1,0.0,0.0,0.0,1.0,0.25,2.0,,2.0,,
s12,1,weather,4,AnoF,7.0,Training,1,0.0,1.0,1.0,0.0,0.5,2.0,,,,
s12,1,weather,4,AnoF,8.0,Training,1,1.0,0.0,0.0,0.0,0.75,1.0,,1.0,,
s12,1,weather,4,AnoF,9.0,Training,1,0.0,1.0,0.0,0.0,0.75,2.0,,1.0,,
s12,1,weather,4,AnoF,10.0,Training,1,1.0,0.0,1.0,0.0,0.5,2.0,,,,
s12,1,weather,4,AnoF,11.0,Training,1,0.0,1.0,1.0,0.0,0.5,2.0,,,,
s12,1,weather,4,AnoF,12.0,Training,1,1.0,1.0,0.0,1.0,0.75,1.0,,1.0,,
s12,1,weather,4,AnoF,13.0,Training,1,0.0,0.0,0.0,1.0,0.25,1.0,,2.0,,
s12,1,weather,4,AnoF,14.0,Training,1,0.0,0.0,1.0,0.0,0.25,2.0,,2.0,,
s12,1,weather,4,AnoF,15.0,Training,1,0.0,0.0,1.0,1.0,0.0,2.0,,2.0,,
s12,1,weather,4,AnoF,16.0,Training,1,1.0,0.0,0.0,0.0,0.75,1.0,,1.0,,
s12,1,weather,4,AnoF,17.0,Training,1,0.0,1.0,0.0,1.0,0.5,1.0,,,,
s12,1,weather,4,AnoF,18.0,Training,1,0.0,1.0,0.0,0.0,0.75,1.0,,1.0,,
s12,1,weather,4,AnoF,19.0,Training,1,1.0,1.0,0.0,0.0,1.0,1.0,,1.0,,
s12,1,weather,4,AnoF,20.0,Training,1,1.0,0.0,1.0,1.0,0.25,1.0,,2.0,,
s12,1,weather,4,AnoF,21.0,Training,1,0.0,1.0,0.0,1.0,0.5,2.0,,,,
s12,1,weather,4,AnoF,22.0,Training,1,0.0,0.0,1.0,1.0,0.0,2.0,,2.0,,
s12,1,weather,4,AnoF,23.0,Training,1,0.0,0.0,0.0,1.0,0.25,2.0,,2.0,,
s12,1,weather,4,AnoF,24.0,Training,1,1.0,1.0,0.0,0.0,1.0,1.0,,1.0,,
s12,1,weather,4,AnoF,25.0,Training,1,0.0,0.0,0.0,1.0,0.25,2.0,,2.0,,
s12,1,weather,4,AnoF,26.0,Training,1,1.0,0.0,0.0,0.0,0.75,2.0,,1.0,,
s12,1,weather,4,AnoF,27.0,Training,1,1.0,0.0,0.0,0.0,0.75,1.0,,1.0,,
s12,1,weather,4,AnoF,28.0,Training,1,1.0,1.0,0.0,0.0,1.0,1.0,,1.0,,
s12,1,weather,4,AnoF,29.0,Training,1,0.0,1.0,0.0,0.0,0.75,2.0,,1.0,,
s12,1,weather,4,AnoF,30.0,Training,1,0.0,0.0,1.0,1.0,0.0,2.0,,2.0,,
s12,1,weather,4,AnoF,31.0,Training,1,0.0,0.0,1.0,1.0,0.0,2.0,,2.0,,
s12,1,weather,4,AnoF,32.0,Training,1,0.0,0.0,0.0,1.0,0.25,2.0,,2.0,,
s12,1,weather,4,AnoF,33.0,Training,1,1.0,0.0,1.0,1.0,0.25,2.0,,2.0,,
s12,1,weather,4,AnoF,34.0,Training,1,1.0,0.0,1.0,0.0,0.5,1.0,,,,
s12,1,weather,4,AnoF,35.0,Training,1,1.0,0.0,0.0,1.0,0.5,2.0,,,,
s12,1,weather,4,AnoF,36.0,Training,1,1.0,0.0,1.0,0.0,0.5,1.0,,,,
s12,1,weather,4,AnoF,37.0,Training,1,1.0,0.0,0.0,1.0,0.5,1.0,,,,
s12,1,weather,4,AnoF,38.0,Training,1,0.0,0.0,0.0,1.0,0.25,2.0,,2.0,,
s12,1,weather,4,AnoF,39.0,Training,1,0.0,1.0,0.0,1.0,0.5,2.0,,,,
s12,1,weather,4,AnoF,40.0,Training,1,0.0,1.0,0.0,0.0,0.75,1.0,,1.0,,
s12,1,weather,4,AnoF,41.0,Training,1,0.0,0.0,1.0,0.0,0.25,1.0,,2.0,,
s12,1,weather,4,AnoF,42.0,Training,1,0.0,0.0,1.0,0.0,0.25,2.0,,2.0,,
s12,1,weather,4,AnoF,43.0,Training,1,0.0,1.0,1.0,1.0,0.25,2.0,,2.0,,
s12,1,weather,4,AnoF,44.0,Training,1,1.0,0.0,0.0,0.0,0.75,1.0,,1.0,,
s12,1,weather,4,AnoF,45.0,Training,1,0.0,1.0,0.0,0.0,0.75,1.0,,1.0,,
s12,1,weather,4,AnoF,46.0,Training,1,0.0,0.0,0.0,1.0,0.25,2.0,,2.0,,
s12,1,weather,4,AnoF,47.0,Training,1,1.0,0.0,1.0,0.0,0.5,1.0,,,,
s12,1,weather,4,AnoF,48.0,Training,1,0.0,0.0,1.0,0.0,0.25,1.0,,2.0,,
s12,1,weather,4,AnoF,49.0,Training,1,1.0,1.0,0.0,0.0,1.0,1.0,,1.0,,
s12,1,weather,4,AnoF,50.0,Training,1,1.0,1.0,1.0,0.0,0.75,1.0,,1.0,,
s12,1,weather,4,AnoF,51.0,Training,1,1.0,1.0,0.0,1.0,0.75,2.0,,1.0,,
s12,1,weather,4,AnoF,52.0,Training,1,0.0,0.0,1.0,0.0,0.25,1.0,,2.0,,
s12,1,weather,4,AnoF,53.0,Test,1,0.0,1.0,0.0,1.0,0.5,,1.0,,9.104,
s12,1,weather,4,AnoF,54.0,Test,1,1.0,1.0,0.0,0.0,1.0,,2.0,1.0,3.96,
s12,1,weather,4,AnoF,55.0,Test,1,1.0,1.0,1.0,0.0,0.75,,2.0,1.0,3.943,
s12,1,weather,4,AnoF,56.0,Test,1,0.0,0.0,1.0,0.0,0.25,,2.0,2.0,4.054,
s12,1,weather,4,AnoF,57.0,Test,1,1.0,0.0,1.0,1.0,0.25,,1.0,2.0,2.177,
s12,1,weather,4,AnoF,58.0,Test,1,1.0,1.0,0.0,1.0,0.75,,1.0,1.0,3.282,
s12,1,weather,4,AnoF,59.0,Test,1,0.0,0.0,1.0,1.0,0.0,,1.0,2.0,4.898,
s12,1,weather,4,AnoF,60.0,Test,1,0.0,1.0,1.0,0.0,0.5,,2.0,,1.1,
s12,1,weather,4,AnoF,61.0,Test,1,0.0,1.0,1.0,1.0,0.25,,2.0,2.0,4.333,
s12,1,weather,4,AnoF,62.0,Test,1,0.0,0.0,0.0,1.0,0.25,,1.0,2.0,1.609,
s12,1,weather,4,AnoF,63.0,Test,1,1.0,0.0,1.0,0.0,0.5,,1.0,,1.848,
s12,1,weather,4,AnoF,64.0,Test,1,0.0,1.0,0.0,0.0,0.75,,2.0,1.0,1.204,
s12,1,weather,4,AnoF,65.0,Test,1,1.0,0.0,0.0,1.0,0.5,,1.0,,3.487,
s12,1,weather,4,AnoF,66.0,Test,1,1.0,0.0,0.0,0.0,0.75,,1.0,1.0,1.139,
s12,1,disease,4,FnoA,1.0,Training,1,1.0,0.0,0.0,0.0,0.75,2.0,2.0,1.0,4.29,1.0
s12,1,disease,4,FnoA,2.0,Training,1,0.0,0.0,1.0,0.0,0.25,1.0,2.0,2.0,2.075,0.0
s12,1,disease,4,FnoA,3.0,Training,1,1.0,1.0,0.0,0.0,1.0,1.0,2.0,1.0,1.029,0.0
s12,1,disease,4,FnoA,4.0,Training,1,0.0,1.0,1.0,1.0,0.25,2.0,2.0,2.0,1.595,1.0
s12,1,disease,4,FnoA,5.0,Training,1,0.0,1.0,1.0,1.0,0.25,1.0,2.0,2.0,0.813,0.0
s12,1,disease,4,FnoA,6.0,Training,1,0.0,1.0,1.0,1.0,0.25,2.0,2.0,2.0,1.057,1.0
s12,1,disease,4,FnoA,7.0,Training,1,0.0,1.0,0.0,1.0,0.5,2.0,1.0,,1.1,0.0
s12,1,disease,4,FnoA,8.0,Training,1,0.0,0.0,1.0,1.0,0.0,2.0,1.0,2.0,3.258,0.0
s12,1,disease,4,FnoA,9.0,Training,1,1.0,1.0,0.0,1.0,0.75,1.0,2.0,1.0,1.731,0.0
s12,1,disease,4,FnoA,10.0,Training,1,0.0,1.0,0.0,1.0,0.5,1.0,2.0,,4.204,0.0
s12,1,disease,4,FnoA,11.0,Training,1,0.0,0.0,0.0,1.0,0.25,2.0,2.0,2.0,0.843,1.0
s12,1,disease,4,FnoA,12.0,Training,1,1.0,1.0,0.0,1.0,0.75,2.0,2.0,1.0,0.997,1.0
s12,1,disease,4,FnoA,13.0,Training,1,0.0,0.0,1.0,0.0,0.25,2.0,2.0,2.0,1.11,1.0
s12,1,disease,4,FnoA,14.0,Training,1,1.0,1.0,1.0,0.0,0.75,2.0,1.0,1.0,0.907,0.0
s12,1,disease,4,FnoA,15.0,Training,1,1.0,1.0,0.0,0.0,1.0,1.0,1.0,1.0,0.946,1.0
s12,1,disease,4,FnoA,16.0,Training,1,0.0,1.0,0.0,0.0,0.75,1.0,1.0,1.0,0.827,1.0
s12,1,disease,4,FnoA,17.0,Training,1,0.0,0.0,1.0,1.0,0.0,2.0,2.0,2.0,0.9,1.0
s12,1,disease,4,FnoA,18.0,Training,1,1.0,0.0,0.0,1.0,0.5,1.0,2.0,,1.103,0.0
s12,1,disease,4,FnoA,19.0,Training,1,0.0,0.0,0.0,1.0,0.25,2.0,2.0,2.0,0.866,1.0
s12,1,disease,4,FnoA,20.0,Training,1,1.0,0.0,1.0,1.0,0.25,1.0,2.0,2.0,0.669,0.0
s12,1,disease,4,FnoA,21.0,Training,1,0.0,1.0,0.0,1.0,0.5,1.0,2.0,,0.728,0.0
s12,1,disease,4,FnoA,22.0,Training,1,1.0,1.0,1.0,0.0,0.75,1.0,2.0,1.0,0.557,0.0
s12,1,disease,4,FnoA,23.0,Training,1,1.0,1.0,0.0,1.0,0.75,1.0,2.0,1.0,0.925,0.0
s12,1,disease,4,FnoA,24.0,Training,1,0.0,1.0,1.0,0.0,0.5,2.0,1.0,,2.095,0.0
s12,1,disease,4,FnoA,25.0,Training,1,1.0,0.0,1.0,1.0,0.25,2.0,2.0,2.0,0.514,1.0
s12,1,disease,4,FnoA,26.0,Training,1,0.0,1.0,1.0,0.0,0.5,2.0,2.0,,0.411,1.0
s12,1,disease,4,FnoA,27.0,Training,1,1.0,0.0,0.0,0.0,0.75,1.0,1.0,1.0,0.457,1.0
s12,1,disease,4,FnoA,28.0,Training,1,0.0,0.0,1.0,0.0,0.25,2.0,2.0,2.0,0.532,1.0
s12,1,disease,4,FnoA,29.0,Training,1,0.0,0.0,1.0,1.0,0.0,2.0,1.0,2.0,0.438,0.0
s12,1,disease,4,FnoA,30.0,Training,1,1.0,1.0,1.0,0.0,0.75,1.0,1.0,1.0,0.497,1.0
s12,1,disease,4,FnoA,31.0,Training,1,1.0,0.0,0.0,1.0,0.5,2.0,2.0,,0.661,1.0
s12,1,disease,4,FnoA,32.0,Training,1,1.0,0.0,0.0,0.0,0.75,1.0,1.0,1.0,1.47,1.0
s12,1,disease,4,FnoA,33.0,Training,1,0.0,1.0,0.0,0.0,0.75,2.0,2.0,1.0,1.072,1.0
s12,1,disease,4,FnoA,34.0,Training,1,0.0,0.0,0.0,1.0,0.25,1.0,1.0,2.0,1.198,1.0
s12,1,disease,4,FnoA,35.0,Training,1,1.0,0.0,1.0,0.0,0.5,2.0,2.0,,0.73,1.0
s12,1,disease,4,FnoA,36.0,Training,1,1.0,0.0,1.0,0.0,0.5,1.0,1.0,,0.919,1.0
s12,1,disease,4,FnoA,37.0,Training,1,1.0,0.0,0.0,1.0,0.5,2.0,2.0,,0.842,1.0
s12,1,disease,4,FnoA,38.0,Training,1,1.0,0.0,1.0,0.0,0.5,1.0,1.0,,0.889,1.0
s12,1,disease,4,FnoA,39.0,Training,1,1.0,1.0,0.0,0.0,1.0,1.0,2.0,1.0,0.684,0.0
s12,1,disease,4,FnoA,40.0,Training,1,1.0,1.0,1.0,0.0,0.75,1.0,2.0,1.0,1.01,0.0
s12,1,disease,4,FnoA,41.0,Training,1,0.0,1.0,0.0,0.0,0.75,1.0,2.0,1.0,0.387,0.0
s12,1,disease,4,FnoA,42.0,Training,1,1.0,1.0,0.0,1.0,0.75,1.0,2.0,1.0,0.659,0.0
s12,1,disease,4,FnoA,43.0,Training,1,0.0,0.0,1.0,1.0,0.0,2.0,2.0,2.0,1.181,1.0
s12,1,disease,4,FnoA,44.0,Training,1,0.0,1.0,0.0,1.0,0.5,2.0,2.0,,0.688,1.0
s12,1,disease,4,FnoA,45.0,Training,1,1.0,1.0,0.0,0.0,1.0,1.0,1.0,1.0,0.69,1.0
s12,1,disease,4,FnoA,46.0,Training,1,0.0,0.0,0.0,1.0,0.25,2.0,2.0,2.0,0.548,1.0
s12,1,disease,4,FnoA,47.0,Training,1,0.0,1.0,1.0,0.0,0.5,1.0,1.0,,1.084,1.0
s12,1,disease,4,FnoA,48.0,Training,1,0.0,1.0,1.0,0.0,0.5,1.0,2.0,,0.7,0.0
s12,1,disease,4,FnoA,49.0,Training,1,0.0,1.0,0.0,0.0,0.75,1.0,1.0,1.0,1.046,1.0
s12,1,disease,4,FnoA,50.0,Training,1,1.0,0.0,0.0,1.0,0.5,1.0,1.0,,0.786,1.0
s12,1,disease,4,FnoA,51.0,Training,1,1.0,0.0,0.0,0.0,0.75,1.0,2.0,1.0,0.677,0.0
s12,1,disease,4,FnoA,52.0,Training,1,1.0,0.0,1.0,1.0,0.25,2.0,1.0,2.0,0.931,0.0
s12,1,disease,4,FnoA,53.0,Training,0,0.0,1.0,1.0,1.0,0.25,2.0,,2.0,1.153,
s12,1,disease,4,FnoA,54.0,Training,0,1.0,0.0,1.0,1.0,0.25,2.0,,2.0,1.568,
s12,1,disease,4,FnoA,55.0,Training,0,1.0,0.0,1.0,0.0,0.5,2.0,,,0.462,
s12,1,disease,4,FnoA,56.0,Training,0,0.0,0.0,1.0,0.0,0.25,2.0,,2.0,0.668,
s12,1,disease,4,FnoA,57.0,Test,1,1.0,1.0,0.0,1.0,0.75,,2.0,1.0,1.069,
s12,1,disease,4,FnoA,58.0,Test,1,0.0,1.0,1.0,0.0,0.5,,2.0,,2.617,
s12,1,disease,4,FnoA,59.0,Test,1,0.0,0.0,1.0,0.0,0.25,,1.0,2.0,0.852,
s12,1,disease,4,FnoA,60.0,Test,1,1.0,0.0,0.0,0.0,0.75,,2.0,1.0,0.912,
s12,1,disease,4,FnoA,61.0,Test,1,1.0,0.0,1.0,1.0,0.25,,2.0,2.0,0.774,
s12,1,disease,4,FnoA,62.0,Test,1,0.0,1.0,1.0,1.0,0.25,,2.0,2.0,0.919,
s12,1,disease,4,FnoA,63.0,Test,1,1.0,1.0,0.0,0.0,1.0,,1.0,1.0,0.561,
s12,1,disease,4,FnoA,64.0,Test,1,0.0,1.0,0.0,0.0,0.75,,1.0,1.0,0.6,
s12,1,disease,4,FnoA,65.0,Test,1,0.0,1.0,0.0,1.0,0.5,,1.0,,0.708,
s12,1,disease,4,FnoA,66.0,Test,1,1.0,1.0,1.0,0.0,0.75,,2.0,1.0,0.665,
s12,1,disease,4,FnoA,67.0,Test,1,0.0,0.0,1.0,1.0,0.0,,1.0,2.0,0.722,
s12,1,disease,4,FnoA,68.0,Test,1,1.0,0.0,1.0,0.0,0.5,,2.0,,1.163,
s12,1,disease,4,FnoA,69.0,Test,1,1.0,0.0,0.0,1.0,0.5,,2.0,,0.482,
s12,1,disease,4,FnoA,70.0,Test,1,0.0,0.0,0.0,1.0,0.25,,1.0,2.0,0.689,
s13,2,weather,1,AnoF,1.0,Training,1,1.0,0.0,0.0,0.0,0.75,2.0,,1.0,,
s13,2,weather,1,AnoF,2.0,Training,1,0.0,0.0,1.0,1.0,0.0,2.0,,2.0,,
s13,2,weather,1,AnoF,3.0,Training,1,1.0,0.0,0.0,0.0,0.75,1.0,,1.0,,
s13,2,weather,1,AnoF,4.0,Training,1,0.0,0.0,1.0,0.0,0.25,1.0,,2.0,,
s13,2,weather,1,AnoF,5.0,Training,1,0.0,0.0,1.0,0.0,0.25,2.0,,2.0,,
s13,2,weather,1,AnoF,6.0,Training,1,0.0,0.0,1.0,0.0,0.25,1.0,,2.0,,
s13,2,weather,1,AnoF,7.0,Training,1,0.0,1.0,1.0,1.0,0.25,2.0,,2.0,,
s13,2,weather,1,AnoF,8.0,Training,1,0.0,0.0,0.0,1.0,0.25,2.0,,2.0,,
s13,2,weather,1,AnoF,9.0,Training,1,1.0,0.0,1.0,1.0,0.25,2.0,,2.0,,
s13,2,weather,1,AnoF,10.0,Training,1,0.0,0.0,1.0,0.0,0.25,2.0,,2.0,,
s13,2,weather,1,AnoF,11.0,Training,1,0.0,0.0,0.0,1.0,0.25,2.0,,2.0,,
s13,2,weather,1,AnoF,12.0,Training,1,1.0,1.0,0.0,1.0,0.75,1.0,,1.0,,
s13,2,weather,1,AnoF,13.0,Training,1,0.0,0.0,1.0,0.0,0.25,1.0,,2.0,,
s13,2,weather,1,AnoF,14.0,Training,1,1.0,0.0,0.0,1.0,0.5,2.0,,,,
s13,2,weather,1,AnoF,15.0,Training,1,1.0,0.0,0.0,0.0,0.75,1.0,,1.0,,
s13,2,weather,1,AnoF,16.0,Training,1,0.0,1.0,0.0,0.0,0.75,1.0,,1.0,,
s13,2,weather,1,AnoF,17.0,Training,1,0.0,0.0,0.0,1.0,0.25,2.0,,2.0,,
s13,2,weather,1,AnoF,18.0,Training,1,1.0,0.0,1.0,0.0,0.5,1.0,,,,
s13,2,weather,1,AnoF,19.0,Training,1,0.0,0.0,0.0,1.0,0.25,2.0,,2.0,,
s13,2,weather,1,AnoF,20.0,Training,1,0.0,1.0,0.0,0.0,0.75,2.0,,1.0,,
s13,2,weather,1,AnoF,21.0,Training,1,1.0,1.0,1.0,0.0,0.75,1.0,,1.0,,
s13,2,weather,1,AnoF,22.0,Training,1,1.0,0.0,1.0,1.0,0.25,1.0,,2.0,,
s13,2,weather,1,AnoF,23.0,Training,1,0.0,1.0,0.0,1.0,0.5,1.0,,,,
s13,2,weather,1,AnoF,24.0,Training,1,0.0,1.0,0.0,0.0,0.75,2.0,,1.0,,
s13,2,weather,1,AnoF,25.0,Training,1,1.0,0.0,0.0,0.0,0.75,1.0,,1.0,,
s13,2,weather,1,AnoF,26.0,Training,1,0.0,0.0,1.0,1.0,0.0,2.0,,2.0,,
s13,2,weather,1,AnoF,27.0,Training,1,0.0,0.0,0.0,1.0,0.25,1.0,,2.0,,
s13,2,weather,1,AnoF,28.0,Training,1,1.0,0.0,1.0,0.0,0.5,1.0,,,,
s13,2,weather,1,AnoF,29.0,Training,1,1.0,0.0,0.0,0.0,0.75,1.0,,1.0,,
s13,2,weather,1,AnoF,30.0,Training,1,0.0,1.0,0.0,0.0,0.75,1.0,,1.0,,
s13,2,weather,1,AnoF,31.0,Training,1,0.0,0.0,0.0,1.0,0.25,2.0,,2.0,,
s13,2,weather,1,AnoF,32.0,Training,1,1.0,1.0,0.0,0.0,1.0,1.0,,1.0,,
s13,2,weather,1,AnoF,33.0,Training,1,1.0,1.0,0.0,0.0,1.0,1.0,,1.0,,
s13,2,weather,1,AnoF,34.0,Training,1,1.0,0.0,1.0,0.0,0.5,2.0,,,,
s13,2,weather,1,AnoF,35.0,Training,1,0.0,0.0,1.0,1.0,0.0,2.0,,2.0,,
s13,2,weather,1,AnoF,36.0,Training,1,0.0,0.0,1.0,0.0,0.25,2.0,,2.0,,
s13,2,weather,1,AnoF,37.0,Training,1,1.0,1.0,0.0,0.0,1.0,1.0,,1.0,,
s13,2,weather,1,AnoF,38.0,Training,1,0.0,1.0,1.0,0.0,0.5,2.0,,,,
s13,2,weather,1,AnoF,39.0,Training,1,1.0,0.0,0.0,1.0,0.5,1.0,,,,
s13,2,weather,1,AnoF,40.0,Training,1,0.0,1.0,0.0,1.0,0.5,2.0,,,,
s13,2,weather,1,AnoF,41.0,Training,1,0.0,0.0,0.0,1.0,0.25,2.0,,2.0,,
s13,2,weather,1,AnoF,42.0,Training,1,0.0,0.0,1.0,1.0,0.0,2.0,,2.0,,
s13,2,weather,1,AnoF,43.0,Training,1,0.0,1.0,0.0,1.0,0.5,2.0,,,,
s13,2,weather,1,AnoF,44.0,Training,1,0.0,1.0,1.0,0.0,0.5,2.0,,,,
s13,2,weather,1,AnoF,45.0,Training,1,1.0,0.0,1.0,0.0,0.5,1.0,,,,
s13,2,weather,1,AnoF,46.0,Training,1,1.0,0.0,0.0,0.0,0.75,1.0,,1.0,,
s13,2,weather,1,AnoF,47.0,Training,1,0.0,1.0,0.0,0.0,0.75,2.0,,1.0,,
s13,2,weather,1,AnoF,48.0,Training,1,1.0,0.0,0.0,0.0,0.75,1.0,,1.0,,
s13,2,weather,1,AnoF,49.0,Training,1,0.0,1.0,0.0,1.0,0.5,2.0,,,,
s13,2,weather,1,AnoF,50.0,Training,1,0.0,1.0,0.0,0.0,0.75,1.0,,1.0,,
s13,2,weather,1,AnoF,51.0,Training,1,1.0,1.0,0.0,0.0,1.0,1.0,,1.0,,
s13,2,weather,1,AnoF,52.0,Training,1,1.0,1.0,0.0,1.0,0.75,2.0,,1.0,,
s13,2,weather,1,AnoF,53.0,Test,1,0.0,1.0,0.0,0.0,0.75,,2.0,1.0,5.81,
s13,2,weather,1,AnoF,54.0,Test,1,0.0,1.0,0.0,1.0,0.5,,2.0,,7.717,
s13,2,weather,1,AnoF,55.0,Test,1,0.0,1.0,1.0,1.0,0.25,,2.0,2.0,5.432,
s13,2,weather,1,AnoF,56.0,Test,1,0.0,0.0,1.0,1.0,0.0,,1.0,2.0,3.768,
s13,2,weather,1,AnoF,57.0,Test,1,1.0,0.0,1.0,1.0,0.25,,2.0,2.0,5.047,
s13,2,weather,1,AnoF,58.0,Test,1,1.0,1.0,1.0,0.0,0.75,,1.0,1.0,3.997,
s13,2,weather,1,AnoF,59.0,Test,1,0.0,1.0,1.0,0.0,0.5,,2.0,,4.457,
s13,2,weather,1,AnoF,60.0,Test,1,1.0,1.0,0.0,0.0,1.0,,1.0,1.0,3.708,
s13,2,weather,1,AnoF,61.0,Test,1,1.0,1.0,0.0,1.0,0.75,,2.0,1.0,3.579,
s13,2,weather,1,AnoF,62.0,Test,1,1.0,0.0,0.0,1.0,0.5,,1.0,,2.248,
s13,2,weather,1,AnoF,63.0,Test,1,0.0,0.0,0.0,1.0,0.25,,2.0,2.0,1.309,
s13,2,weather,1,AnoF,64.0,Test,1,0.0,0.0,1.0,0.0,0.25,,2.0,2.0,12.823,
s13,2,weather,1,AnoF,65.0,Test,1,1.0,0.0,0.0,0.0,0.75,,1.0,1.0,2.287,
s13,2,weather,1,AnoF,66.0,Test,1,1.0,0.0,1.0,0.0,0.5,,2.0,,4.086,
s13,2,disease,1,FnoA,1.0,Training,1,1.0,0.0,1.0,0.0,0.5,2.0,1.0,,28.437,0.0
s13,2,disease,1,FnoA,2.0,Training,1,1.0,0.0,0.0,1.0,0.5,1.0,2.0,,2.86,0.0
s13,2,disease,1,FnoA,3.0,Training,1,1.0,1.0,0.0,0.0,1.0,1.0,1.0,1.0,3.224,1.0
s13,2,disease,1,FnoA,4.0,Training,1,0.0,1.0,0.0,1.0,0.5,1.0,1.0,,3.823,1.0
s13,2,disease,1,FnoA,5.0,Training,1,1.0,1.0,0.0,1.0,0.75,1.0,1.0,1.0,2.281,1.0
s13,2,disease,1,FnoA,6.0,Training,1,0.0,1.0,0.0,0.0,0.75,2.0,2.0,1.0,6.495,1.0
s13,2,disease,1,FnoA,7.0,Training,1,0.0,1.0,1.0,0.0,0.5,1.0,1.0,,2.16,1.0
s13,2,disease,1,FnoA,8.0,Training,1,0.0,1.0,0.0,0.0,0.75,1.0,2.0,1.0,1.635,0.0
s13,2,disease,1,FnoA,9.0,Training,1,0.0,1.0,0.0,1.0,0.5,2.0,1.0,,1.044,0.0
s13,2,disease,1,FnoA,10.0,Training,1,0.0,1.0,1.0,1.0,0.25,1.0,1.0,2.0,2.432,1.0
s13,2,disease,1,FnoA,11.0,Training,1,1.0,1.0,0.0,1.0,0.75,1.0,2.0,1.0,1.724,0.0
s13,2,disease,1,FnoA,12.0,Training,1,1.0,0.0,0.0,1.0,0.5,2.0,1.0,,0.981,0.0
s13,2,disease,1,FnoA,13.0,Training,1,0.0,0.0,1.0,1.0,0.0,2.0,1.0,2.0,1.589,0.0
s13,2,disease,1,FnoA,14.0,Training,1,1.0,1.0,0.0,0.0,1.0,1.0,2.0,1.0,1.008,0.0
s13,2,disease,1,FnoA,15.0,Training,1,0.0,0.0,1.0,1.0,0.0,2.0,1.0,2.0,1.119,0.0
s13,2,disease,1,FnoA,16.0,Training,1,1.0,0.0,1.0,1.0,0.25,2.0,2.0,2.0,4.026,1.0
s13,2,disease,1,FnoA,17.0,Training,1,1.0,1.0,0.0,0.0,1.0,1.0,1.0,1.0,6.012,1.0
s13,2,disease,1,FnoA,18.0,Training,1,0.0,1.0,1.0,1.0,0.25,2.0,1.0,2.0,2.131,0.0
s13,2,disease,1,FnoA,19.0,Training,1,0.0,0.0,0.0,1.0,0.25,1.0,1.0,2.0,1.311,1.0
s13,2,disease,1,FnoA,20.0,Training,1,1.0,0.0,1.0,1.0,0.25,1.0,2.0,2.0,0.818,0.0
s13,2,disease,1,FnoA,21.0,Training,1,1.0,0.0,0.0,0.0,0.75,1.0,2.0,1.0,1.491,0.0
s13,2,disease,1,FnoA,22.0,Training,1,1.0,0.0,0.0,1.0,0.5,2.0,1.0,,1.104,0.0
s13,2,disease,1,FnoA,23.0,Training,1,0.0,0.0,1.0,0.0,0.25,1.0,2.0,2.0,1.176,0.0
s13,2,disease,1,FnoA,24.0,Training,1,0.0,0.0,1.0,1.0,0.0,2.0,2.0,2.0,3.787,1.0
s13,2,disease,1,FnoA,25.0,Training,1,1.0,1.0,1.0,0.0,0.75,2.0,1.0,1.0,2.168,0.0
s13,2,disease,1,FnoA,26.0,Training,1,1.0,0.0,0.0,0.0,0.75,1.0,2.0,1.0,1.471,0.0
s13,2,disease,1,FnoA,27.0,Training,1,0.0,1.0,1.0,1.0,0.25,2.0,2.0,2.0,1.778,1.0
s13,2,disease,1,FnoA,28.0,Training,1,1.0,1.0,1.0,0.0,0.75,1.0,1.0,1.0,2.329,1.0
s13,2,disease,1,FnoA,29.0,Training,1,1.0,0.0,1.0,1.0,0.25,2.0,1.0,2.0,1.049,0.0
s13,2,disease,1,FnoA,30.0,Training,1,1.0,0.0,0.0,1.0,0.5,1.0,1.0,,2.591,1.0
s13,2,disease,1,FnoA,31.0,Training,1,0.0,0.0,1.0,1.0,0.0,2.0,1.0,2.0,5.263,0.0
s13,2,disease,1,FnoA,32.0,Training,1,0.0,1.0,1.0,1.0,0.25,2.0,2.0,2.0,4.8,1.0
s13,2,disease,1,FnoA,33.0,Training,1,1.0,0.0,0.0,0.0,0.75,2.0,2.0,1.0,1.286,1.0
s13,2,disease,1,FnoA,34.0,Training,1,0.0,0.0,0.0,1.0,0.25,2.0,1.0,2.0,1.592,0.0
s13,2,disease,1,FnoA,35.0,Training,1,0.0,1.0,0.0,1.0,0.5,2.0,2.0,,1.125,1.0
s13,2,disease,1,FnoA,36.0,Training,1,1.0,0.0,1.0,0.0,0.5,1.0,2.0,,2.16,0.0
s13,2,disease,1,FnoA,37.0,Training,1,0.0,1.0,1.0,0.0,0.5,2.0,2.0,,2.471,1.0
s13,2,disease,1,FnoA,38.0,Training,1,0.0,0.0,1.0,0.0,0.25,2.0,1.0,2.0,1.214,0.0
s13,2,disease,1,FnoA,39.0,Training,1,0.0,0.0,1.0,0.0,0.25,2.0,2.0,2.0,0.892,1.0
s13,2,disease,1,FnoA,40.0,Training,1,0.0,1.0,1.0,0.0,0.5,1.0,2.0,,0.828,0.0
s13,2,disease,1,FnoA,41.0,Training,1,1.0,0.0,1.0,0.0,0.5,2.0,2.0,,1.301,1.0
s13,2,disease,1,FnoA,42.0,Training,1,1.0,1.0,0.0,0.0,1.0,1.0,1.0,1.0,1.722,1.0
s13,2,disease,1,FnoA,43.0,Training,1,0.0,1.0,1.0,0.0,0.5,2.0,2.0,,1.087,1.0
s13,2,disease,1,FnoA,44.0,Training,1,1.0,1.0,1.0,0.0,0.75,1.0,1.0,1.0,1.084,1.0
s13,2,disease,1,FnoA,45.0,Training,1,1.0,0.0,1.0,0.0,0.5,1.0,1.0,,0.984,1.0
s13,2,disease,1,FnoA,46.0,Training,1,1.0,1.0,1.0,0.0,0.75,1.0,1.0,1.0,0.962,1.0
s13,2,disease,1,FnoA,47.0,Training,1,0.0,0.0,0.0,1.0,0.25,2.0,2.0,2.0,2.052,1.0
s13,2,disease,1,FnoA,48.0,Training,1,1.0,1.0,0.0,1.0,0.75,1.0,1.0,1.0,0.823,1.0
s13,2,disease,1,FnoA,49.0,Training,1,1.0,1.0,0.0,1.0,0.75,2.0,2.0,1.0,2.116,1.0
s13,2,disease,1,FnoA,50.0,Training,1,0.0,1.0,0.0,1.0,0.5,1.0,2.0,,2.096,0.0
s13,2,disease,1,FnoA,51.0,Training,1,0.0,1.0,0.0,0.0,0.75,1.0,1.0,1.0,1.515,1.0
s13,2,disease,1,FnoA,52.0,Training,1,0.0,1.0,0.0,0.0,0.75,1.0,2.0,1.0,0.0,0.0
s13,2,disease,1,FnoA,53.0,Training,1,1.0,0.0,0.0,0.0,0.75,1.0,,1.0,3.066,2.0
s13,2,disease,1,FnoA,54.0,Training,1,0.0,0.0,0.0,1.0,0.25,2.0,2.0,2.0,0.975,1.0
s13,2,disease,1,FnoA,55.0,Training,1,1.0,0.0,1.0,1.0,0.25,2.0,2.0,2.0,1.962,1.0
s13,2,disease,1,FnoA,56.0,Training,1,0.0,0.0,1.0,0.0,0.25,2.0,2.0,2.0,1.796,1.0
s13,2,disease,1,FnoA,57.0,Test,1,1.0,1.0,0.0,0.0,1.0,,1.0,1.0,10.315,
s13,2,disease,1,FnoA,58.0,Test,1,0.0,1.0,0.0,0.0,0.75,,1.0,1.0,3.903,
s13,2,disease,1,FnoA,59.0,Test,1,1.0,0.0,1.0,0.0,0.5,,2.0,,1.925,
s13,2,disease,1,FnoA,60.0,Test,1,0.0,0.0,1.0,0.0,0.25,,1.0,2.0,6.08,
s13,2,disease,1,FnoA,61.0,Test,1,0.0,0.0,0.0,1.0,0.25,,2.0,2.0,1.279,
s13,2,disease,1,FnoA,62.0,Test,1,1.0,1.0,0.0,1.0,0.75,,2.0,1.0,3.061,
s13,2,disease,1,FnoA,63.0,Test,1,0.0,1.0,1.0,0.0,0.5,,1.0,,4.257,
s13,2,disease,1,FnoA,64.0,Test,1,0.0,1.0,0.0,1.0,0.5,,2.0,,2.945,
s13,2,disease,1,FnoA,65.0,Test,1,0.0,0.0,1.0,1.0,0.0,,1.0,2.0,4.86,
s13,2,disease,1,FnoA,66.0,Test,1,1.0,0.0,1.0,1.0,0.25,,2.0,2.0,4.407,
s13,2,disease,1,FnoA,67.0,Test,1,0.0,1.0,1.0,1.0,0.25,,1.0,2.0,3.061,
s13,2,disease,1,FnoA,68.0,Test,1,1.0,0.0,0.0,0.0,0.75,,1.0,1.0,4.541,
s13,2,disease,1,FnoA,69.0,Test,1,1.0,1.0,1.0,0.0,0.75,,1.0,1.0,1.631,
s13,2,disease,1,FnoA,70.0,Test,1,1.0,0.0,0.0,1.0,0.5,,2.0,,6.711,
s14,2,weather,1,AnoF,1.0,Training,1,1.0,0.0,0.0,0.0,0.75,2.0,,1.0,,
s14,2,weather,1,AnoF,2.0,Training,1,0.0,0.0,1.0,1.0,0.0,2.0,,2.0,,
s14,2,weather,1,AnoF,3.0,Training,1,1.0,0.0,0.0,0.0,0.75,1.0,,1.0,,
s14,2,weather,1,AnoF,4.0,Training,1,0.0,0.0,1.0,0.0,0.25,1.0,,2.0,,
s14,2,weather,1,AnoF,5.0,Training,1,0.0,0.0,1.0,0.0,0.25,2.0,,2.0,,
s14,2,weather,1,AnoF,6.0,Training,1,0.0,0.0,1.0,0.0,0.25,1.0,,2.0,,
s14,2,weather,1,AnoF,7.0,Training,1,0.0,1.0,1.0,1.0,0.25,2.0,,2.0,,
s14,2,weather,1,AnoF,8.0,Training,1,0.0,0.0,0.0,1.0,0.25,2.0,,2.0,,
s14,2,weather,1,AnoF,9.0,Training,1,1.0,0.0,1.0,1.0,0.25,2.0,,2.0,,
s14,2,weather,1,AnoF,10.0,Training,1,0.0,0.0,1.0,0.0,0.25,2.0,,2.0,,
s14,2,weather,1,AnoF,11.0,Training,1,0.0,0.0,0.0,1.0,0.25,2.0,,2.0,,
s14,2,weather,1,AnoF,12.0,Training,1,1.0,1.0,0.0,1.0,0.75,1.0,,1.0,,
s14,2,weather,1,AnoF,13.0,Training,1,0.0,0.0,1.0,0.0,0.25,1.0,,2.0,,
s14,2,weather,1,AnoF,14.0,Training,1,1.0,0.0,0.0,1.0,0.5,2.0,,,,
s14,2,weather,1,AnoF,15.0,Training,1,1.0,0.0,0.0,0.0,0.75,1.0,,1.0,,
s14,2,weather,1,AnoF,16.0,Training,1,0.0,1.0,0.0,0.0,0.75,1.0,,1.0,,
s14,2,weather,1,AnoF,17.0,Training,1,0.0,0.0,0.0,1.0,0.25,2.0,,2.0,,
s14,2,weather,1,AnoF,18.0,Training,1,1.0,0.0,1.0,0.0,0.5,1.0,,,,
s14,2,weather,1,AnoF,19.0,Training,1,0.0,0.0,0.0,1.0,0.25,2.0,,2.0,,
s14,2,weather,1,AnoF,20.0,Training,1,0.0,1.0,0.0,0.0,0.75,2.0,,1.0,,
s14,2,weather,1,AnoF,21.0,Training,1,1.0,1.0,1.0,0.0,0.75,1.0,,1.0,,
s14,2,weather,1,AnoF,22.0,Training,1,1.0,0.0,1.0,1.0,0.25,1.0,,2.0,,
s14,2,weather,1,AnoF,23.0,Training,1,0.0,1.0,0.0,1.0,0.5,1.0,,,,
s14,2,weather,1,AnoF,24.0,Training,1,0.0,1.0,0.0,0.0,0.75,2.0,,1.0,,
s14,2,weather,1,AnoF,25.0,Training,1,1.0,0.0,0.0,0.0,0.75,1.0,,1.0,,
s14,2,weather,1,AnoF,26.0,Training,1,0.0,0.0,1.0,1.0,0.0,2.0,,2.0,,
s14,2,weather,1,AnoF,27.0,Training,1,0.0,0.0,0.0,1.0,0.25,1.0,,2.0,,
s14,2,weather,1,AnoF,28.0,Training,1,1.0,0.0,1.0,0.0,0.5,1.0,,,,
s14,2,weather,1,AnoF,29.0,Training,1,1.0,0.0,0.0,0.0,0.75,1.0,,1.0,,
s14,2,weather,1,AnoF,30.0,Training,1,0.0,1.0,0.0,0.0,0.75,1.0,,1.0,,
s14,2,weather,1,AnoF,31.0,Training,1,0.0,0.0,0.0,1.0,0.25,2.0,,2.0,,
s14,2,weather,1,AnoF,32.0,Training,1,1.0,1.0,0.0,0.0,1.0,1.0,,1.0,,
s14,2,weather,1,AnoF,33.0,Training,1,1.0,1.0,0.0,0.0,1.0,1.0,,1.0,,
s14,2,weather,1,AnoF,34.0,Training,1,1.0,0.0,1.0,0.0,0.5,2.0,,,,
s14,2,weather,1,AnoF,35.0,Training,1,0.0,0.0,1.0,1.0,0.0,2.0,,2.0,,
s14,2,weather,1,AnoF,36.0,Training,1,0.0,0.0,1.0,0.0,0.25,2.0,,2.0,,
s14,2,weather,1,AnoF,37.0,Training,1,1.0,1.0,0.0,0.0,1.0,1.0,,1.0,,
s14,2,weather,1,AnoF,38.0,Training,1,0.0,1.0,1.0,0.0,0.5,2.0,,,,
s14,2,weather,1,AnoF,39.0,Training,1,1.0,0.0,0.0,1.0,0.5,1.0,,,,
s14,2,weather,1,AnoF,40.0,Training,1,0.0,1.0,0.0,1.0,0.5,2.0,,,,
s14,2,weather,1,AnoF,41.0,Training,1,0.0,0.0,0.0,1.0,0.25,2.0,,2.0,,
s14,2,weather,1,AnoF,42.0,Training,1,0.0,0.0,1.0,1.0,0.0,2.0,,2.0,,
s14,2,weather,1,AnoF,43.0,Training,1,0.0,1.0,0.0,1.0,0.5,2.0,,,,
s14,2,weather,1,AnoF,44.0,Training,1,0.0,1.0,1.0,0.0,0.5,2.0,,,,
s14,2,weather,1,AnoF,45.0,Training,1,1.0,0.0,1.0,0.0,0.5,1.0,,,,
s14,2,weather,1,AnoF,46.0,Training,1,1.0,0.0,0.0,0.0,0.75,1.0,,1.0,,
s14,2,weather,1,AnoF,47.0,Training,1,0.0,1.0,0.0,0.0,0.75,2.0,,1.0,,
s14,2,weather,1,AnoF,48.0,Training,1,1.0,0.0,0.0,0.0,0.75,1.0,,1.0,,
s14,2,weather,1,AnoF,49.0,Training,1,0.0,1.0,0.0,1.0,0.5,2.0,,,,
s14,2,weather,1,AnoF,50.0,Training,1,0.0,1.0,0.0,0.0,0.75,1.0,,1.0,,
s14,2,weather,1,AnoF,51.0,Training,1,1.0,1.0,0.0,0.0,1.0,1.0,,1.0,,
s14,2,weather,1,AnoF,52.0,Training,1,1.0,1.0,0.0,1.0,0.75,2.0,,1.0,,
s14,2,weather,1,AnoF,53.0,Test,1,0.0,1.0,0.0,0.0,0.75,,1.0,1.0,7.469,
s14,2,weather,1,AnoF,54.0,Test,1,0.0,1.0,0.0,1.0,0.5,,2.0,,4.006,
s14,2,weather,1,AnoF,55.0,Test,1,0.0,1.0,1.0,1.0,0.25,,2.0,2.0,1.699,
s14,2,weather,1,AnoF,56.0,Test,1,0.0,0.0,1.0,1.0,0.0,,1.0,2.0,2.544,
s14,2,weather,1,AnoF,57.0,Test,1,1.0,0.0,1.0,1.0,0.25,,2.0,2.0,1.973,
s14,2,weather,1,AnoF,58.0,Test,1,1.0,1.0,1.0,0.0,0.75,,1.0,1.0,1.936,
s14,2,weather,1,AnoF,59.0,Test,1,0.0,1.0,1.0,0.0,0.5,,1.0,,1.227,
s14,2,weather,1,AnoF,60.0,Test,1,1.0,1.0,0.0,0.0,1.0,,1.0,1.0,1.392,
s14,2,weather,1,AnoF,61.0,Test,1,1.0,1.0,0.0,1.0,0.75,,2.0,1.0,2.11,
s14,2,weather,1,AnoF,62.0,Test,1,1.0,0.0,0.0,1.0,0.5,,2.0,,1.134,
s14,2,weather,1,AnoF,63.0,Test,1,0.0,0.0,0.0,1.0,0.25,,2.0,2.0,1.221,
s14,2,weather,1,AnoF,64.0,Test,1,0.0,0.0,1.0,0.0,0.25,,2.0,2.0,1.534,
s14,2,weather,1,AnoF,65.0,Test,1,1.0,0.0,0.0,0.0,0.75,,1.0,1.0,1.122,
s14,2,weather,1,AnoF,66.0,Test,1,1.0,0.0,1.0,0.0,0.5,,2.0,,2.079,
s14,2,disease,1,FnoA,1.0,Training,1,1.0,0.0,1.0,0.0,0.5,2.0,1.0,,8.047,0.0
s14,2,disease,1,FnoA,2.0,Training,1,1.0,0.0,0.0,1.0,0.5,1.0,2.0,,1.999,0.0
s14,2,disease,1,FnoA,3.0,Training,1,1.0,1.0,0.0,0.0,1.0,1.0,2.0,1.0,2.812,0.0
s14,2,disease,1,FnoA,4.0,Training,1,0.0,1.0,0.0,1.0,0.5,1.0,1.0,,1.125,1.0
s14,2,disease,1,FnoA,5.0,Training,1,1.0,1.0,0.0,1.0,0.75,1.0,1.0,1.0,1.424,1.0
s14,2,disease,1,FnoA,6.0,Training,1,0.0,1.0,0.0,0.0,0.75,2.0,2.0,1.0,0.783,1.0
s14,2,disease,1,FnoA,7.0,Training,1,0.0,1.0,1.0,0.0,0.5,1.0,2.0,,1.127,0.0
s14,2,disease,1,FnoA,8.0,Training,1,0.0,1.0,0.0,0.0,0.75,1.0,1.0,1.0,0.747,1.0
s14,2,disease,1,FnoA,9.0,Training,1,0.0,1.0,0.0,1.0,0.5,2.0,1.0,,0.705,0.0
s14,2,disease,1,FnoA,10.0,Training,1,0.0,1.0,1.0,1.0,0.25,1.0,2.0,2.0,1.427,0.0
s14,2,disease,1,FnoA,11.0,Training,1,1.0,1.0,0.0,1.0,0.75,1.0,2.0,1.0,1.622,0.0
s14,2,disease,1,FnoA,12.0,Training,1,1.0,0.0,0.0,1.0,0.5,2.0,2.0,,1.926,1.0
s14,2,disease,1,FnoA,13.0,Training,1,0.0,0.0,1.0,1.0,0.0,2.0,2.0,2.0,1.029,1.0
s14,2,disease,1,FnoA,14.0,Training,1,1.0,1.0,0.0,0.0,1.0,1.0,1.0,1.0,0.939,1.0
s14,2,disease,1,FnoA,15.0,Training,1,0.0,0.0,1.0,1.0,0.0,2.0,2.0,2.0,1.159,1.0
s14,2,disease,1,FnoA,16.0,Training,1,1.0,0.0,1.0,1.0,0.25,2.0,2.0,2.0,0.891,1.0
s14,2,disease,1,FnoA,17.0,Training,1,1.0,1.0,0.0,0.0,1.0,1.0,1.0,1.0,0.971,1.0
s14,2,disease,1,FnoA,18.0,Training,1,0.0,1.0,1.0,1.0,0.25,2.0,1.0,2.0,1.36,0.0
s14,2,disease,1,FnoA,19.0,Training,1,0.0,0.0,0.0,1.0,0.25,1.0,1.0,2.0,1.331,1.0
s14,2,disease,1,FnoA,20.0,Training,1,1.0,0.0,1.0,1.0,0.25,1.0,2.0,2.0,1.105,0.0
s14,2,disease,1,FnoA,21.0,Training,1,1.0,0.0,0.0,0.0,0.75,1.0,1.0,1.0,1.125,1.0
s14,2,disease,1,FnoA,22.0,Training,1,1.0,0.0,0.0,1.0,0.5,2.0,1.0,,1.198,0.0
s14,2,disease,1,FnoA,23.0,Training,1,0.0,0.0,1.0,0.0,0.25,1.0,2.0,2.0,0.719,0.0
s14,2,disease,1,FnoA,24.0,Training,1,0.0,0.0,1.0,1.0,0.0,2.0,1.0,2.0,0.574,0.0
s14,2,disease,1,FnoA,25.0,Training,1,1.0,1.0,1.0,0.0,0.75,2.0,1.0,1.0,1.878,0.0
s14,2,disease,1,FnoA,26.0,Training,1,1.0,0.0,0.0,0.0,0.75,1.0,2.0,1.0,0.9,0.0
s14,2,disease,1,FnoA,27.0,Training,1,0.0,1.0,1.0,1.0,0.25,2.0,2.0,2.0,2.124,1.0
s14,2,disease,1,FnoA,28.0,Training,1,1.0,1.0,1.0,0.0,0.75,1.0,1.0,1.0,1.142,1.0
s14,2,disease,1,FnoA,29.0,Training,1,1.0,0.0,1.0,1.0,0.25,2.0,2.0,2.0,1.043,1.0
s14,2,disease,1,FnoA,30.0,Training,1,1.0,0.0,0.0,1.0,0.5,1.0,2.0,,1.624,0.0
s14,2,disease,1,FnoA,31.0,Training,1,0.0,0.0,1.0,1.0,0.0,2.0,2.0,2.0,1.472,1.0
s14,2,disease,1,FnoA,32.0,Training,1,0.0,1.0,1.0,1.0,0.25,2.0,1.0,2.0,1.186,0.0
s14,2,disease,1,FnoA,33.0,Training,1,1.0,0.0,0.0,0.0,0.75,2.0,2.0,1.0,1.278,1.0
s14,2,disease,1,FnoA,34.0,Training,1,0.0,0.0,0.0,1.0,0.25,2.0,1.0,2.0,1.3,0.0
s14,2,disease,1,FnoA,35.0,Training,1,0.0,1.0,0.0,1.0,0.5,2.0,2.0,,2.329,1.0
s14,2,disease,1,FnoA,36.0,Training,1,1.0,0.0,1.0,0.0,0.5,1.0,1.0,,1.439,1.0
s14,2,disease,1,FnoA,37.0,Training,1,0.0,1.0,1.0,0.0,0.5,2.0,2.0,,2.061,1.0
s14,2,disease,1,FnoA,38.0,Training,1,0.0,0.0,1.0,0.0,0.25,2.0,2.0,2.0,1.099,1.0
s14,2,disease,1,FnoA,39.0,Training,1,0.0,0.0,1.0,0.0,0.25,2.0,2.0,2.0,0.685,1.0
s14,2,disease,1,FnoA,40.0,Training,1,0.0,1.0,1.0,0.0,0.5,1.0,2.0,,0.993,0.0
s14,2,disease,1,FnoA,41.0,Training,1,1.0,0.0,1.0,0.0,0.5,2.0,2.0,,0.99,1.0
s14,2,disease,1,FnoA,42.0,Training,1,1.0,1.0,0.0,0.0,1.0,1.0,1.0,1.0,0.56,1.0
s14,2,disease,1,FnoA,43.0,Training,1,0.0,1.0,1.0,0.0,0.5,2.0,1.0,,0.495,0.0
s14,2,disease,1,FnoA,44.0,Training,1,1.0,1.0,1.0,0.0,0.75,1.0,1.0,1.0,1.027,1.0
s14,2,disease,1,FnoA,45.0,Training,1,1.0,0.0,1.0,0.0,0.5,1.0,2.0,,1.423,0.0
s14,2,disease,1,FnoA,46.0,Training,1,1.0,1.0,1.0,0.0,0.75,1.0,1.0,1.0,1.204,1.0
s14,2,disease,1,FnoA,47.0,Training,1,0.0,0.0,0.0,1.0,0.25,2.0,2.0,2.0,1.125,1.0
s14,2,disease,1,FnoA,48.0,Training,1,1.0,1.0,0.0,1.0,0.75,1.0,1.0,1.0,0.966,1.0
s14,2,disease,1,FnoA,49.0,Training,1,1.0,1.0,0.0,1.0,0.75,2.0,1.0,1.0,0.705,0.0
s14,2,disease,1,FnoA,50.0,Training,1,0.0,1.0,0.0,1.0,0.5,1.0,1.0,,1.247,1.0
s14,2,disease,1,FnoA,51.0,Training,1,0.0,1.0,0.0,0.0,0.75,1.0,1.0,1.0,1.0,1.0
s14,2,disease,1,FnoA,52.0,Training,1,0.0,1.0,0.0,0.0,0.75,1.0,1.0,1.0,0.785,1.0
s14,2,disease,1,FnoA,53.0,Training,1,1.0,0.0,0.0,0.0,0.75,1.0,1.0,1.0,0.801,1.0
s14,2,disease,1,FnoA,54.0,Training,1,0.0,0.0,0.0,1.0,0.25,2.0,2.0,2.0,1.416,1.0
s14,2,disease,1,FnoA,55.0,Training,1,1.0,0.0,1.0,1.0,0.25,2.0,,2.0,1.594,2.0
s14,2,disease,1,FnoA,56.0,Training,1,0.0,0.0,1.0,0.0,0.25,2.0,2.0,2.0,1.4,1.0
s14,2,disease,1,FnoA,57.0,Test,1,1.0,1.0,0.0,0.0,1.0,,1.0,1.0,1.527,
s14,2,disease,1,FnoA,58.0,Test,1,0.0,1.0,0.0,0.0,0.75,,1.0,1.0,1.117,
s14,2,disease,1,FnoA,59.0,Test,1,1.0,0.0,1.0,0.0,0.5,,2.0,,0.989,
s14,2,disease,1,FnoA,60.0,Test,1,0.0,0.0,1.0,0.0,0.25,,2.0,2.0,0.829,
s14,2,disease,1,FnoA,61.0,Test,1,0.0,0.0,0.0,1.0,0.25,,2.0,2.0,0.861,
s14,2,disease,1,FnoA,62.0,Test,1,1.0,1.0,0.0,1.0,0.75,,2.0,1.0,1.106,
s14,2,disease,1,FnoA,63.0,Test,1,0.0,1.0,1.0,0.0,0.5,,1.0,,1.818,
s14,2,disease,1,FnoA,64.0,Test,1,0.0,1.0,0.0,1.0,0.5,,1.0,,0.777,
s14,2,disease,1,FnoA,65.0,Test,1,0.0,0.0,1.0,1.0,0.0,,2.0,2.0,0.723,
s14,2,disease,1,FnoA,66.0,Test,1,1.0,0.0,1.0,1.0,0.25,,1.0,2.0,1.775,
s14,2,disease,1,FnoA,67.0,Test,1,0.0,1.0,1.0,1.0,0.25,,2.0,2.0,1.101,
s14,2,disease,1,FnoA,68.0,Test,1,1.0,0.0,0.0,0.0,0.75,,2.0,1.0,0.791,
s14,2,disease,1,FnoA,69.0,Test,1,1.0,1.0,1.0,0.0,0.75,,1.0,1.0,0.748,
s14,2,disease,1,FnoA,70.0,Test,1,1.0,0.0,0.0,1.0,0.5,,1.0,,1.49,
s15,1,disease,2,AnoF,1.0,Training,1,0.0,1.0,0.0,0.0,0.75,2.0,,1.0,,
s15,1,disease,2,AnoF,2.0,Training,1,1.0,0.0,0.0,0.0,0.75,1.0,,1.0,,
s15,1,disease,2,AnoF,3.0,Training,1,1.0,0.0,0.0,0.0,0.75,1.0,,1.0,,
s15,1,disease,2,AnoF,4.0,Training,1,0.0,1.0,0.0,1.0,0.5,2.0,,,,
s15,1,disease,2,AnoF,5.0,Training,1,0.0,0.0,1.0,0.0,0.25,2.0,,2.0,,
s15,1,disease,2,AnoF,6.0,Training,1,0.0,0.0,0.0,1.0,0.25,2.0,,2.0,,
s15,1,disease,2,AnoF,7.0,Training,1,0.0,1.0,1.0,0.0,0.5,2.0,,,,
s15,1,disease,2,AnoF,8.0,Training,1,1.0,0.0,0.0,0.0,0.75,1.0,,1.0,,
s15,1,disease,2,AnoF,9.0,Training,1,0.0,1.0,0.0,0.0,0.75,2.0,,1.0,,
s15,1,disease,2,AnoF,10.0,Training,1,1.0,0.0,1.0,0.0,0.5,2.0,,,,
s15,1,disease,2,AnoF,11.0,Training,1,0.0,1.0,1.0,0.0,0.5,2.0,,,,
s15,1,disease,2,AnoF,12.0,Training,1,1.0,1.0,0.0,1.0,0.75,1.0,,1.0,,
s15,1,disease,2,AnoF,13.0,Training,1,0.0,0.0,0.0,1.0,0.25,1.0,,2.0,,
s15,1,disease,2,AnoF,14.0,Training,1,0.0,0.0,1.0,0.0,0.25,2.0,,2.0,,
s15,1,disease,2,AnoF,15.0,Training,1,0.0,0.0,1.0,1.0,0.0,2.0,,2.0,,
s15,1,disease,2,AnoF,16.0,Training,1,1.0,0.0,0.0,0.0,0.75,1.0,,1.0,,
s15,1,disease,2,AnoF,17.0,Training,1,0.0,1.0,0.0,1.0,0.5,1.0,,,,
s15,1,disease,2,AnoF,18.0,Training,1,0.0,1.0,0.0,0.0,0.75,1.0,,1.0,,
s15,1,disease,2,AnoF,19.0,Training,1,1.0,1.0,0.0,0.0,1.0,1.0,,1.0,,
s15,1,disease,2,AnoF,20.0,Training,1,1.0,0.0,1.0,1.0,0.25,1.0,,2.0,,
s15,1,disease,2,AnoF,21.0,Training,1,0.0,1.0,0.0,1.0,0.5,2.0,,,,
s15,1,disease,2,AnoF,22.0,Training,1,0.0,0.0,1.0,1.0,0.0,2.0,,2.0,,
s15,1,disease,2,AnoF,23.0,Training,1,0.0,0.0,0.0,1.0,0.25,2.0,,2.0,,
s15,1,disease,2,AnoF,24.0,Training,1,1.0,1.0,0.0,0.0,1.0,1.0,,1.0,,
s15,1,disease,2,AnoF,25.0,Training,1,0.0,0.0,0.0,1.0,0.25,2.0,,2.0,,
s15,1,disease,2,AnoF,26.0,Training,1,1.0,0.0,0.0,0.0,0.75,2.0,,1.0,,
s15,1,disease,2,AnoF,27.0,Training,1,1.0,0.0,0.0,0.0,0.75,1.0,,1.0,,
s15,1,disease,2,AnoF,28.0,Training,1,1.0,1.0,0.0,0.0,1.0,1.0,,1.0,,
s15,1,disease,2,AnoF,29.0,Training,1,0.0,1.0,0.0,0.0,0.75,2.0,,1.0,,
s15,1,disease,2,AnoF,30.0,Training,1,0.0,0.0,1.0,1.0,0.0,2.0,,2.0,,
s15,1,disease,2,AnoF,31.0,Training,1,0.0,0.0,1.0,1.0,0.0,2.0,,2.0,,
s15,1,disease,2,AnoF,32.0,Training,1,0.0,0.0,0.0,1.0,0.25,2.0,,2.0,,
s15,1,disease,2,AnoF,33.0,Training,1,1.0,0.0,1.0,1.0,0.25,2.0,,2.0,,
s15,1,disease,2,AnoF,34.0,Training,1,1.0,0.0,1.0,0.0,0.5,1.0,,,,
s15,1,disease,2,AnoF,35.0,Training,1,1.0,0.0,0.0,1.0,0.5,2.0,,,,
s15,1,disease,2,AnoF,36.0,Training,1,1.0,0.0,1.0,0.0,0.5,1.0,,,,
s15,1,disease,2,AnoF,37.0,Training,1,1.0,0.0,0.0,1.0,0.5,1.0,,,,
s15,1,disease,2,AnoF,38.0,Training,1,0.0,0.0,0.0,1.0,0.25,2.0,,2.0,,
s15,1,disease,2,AnoF,39.0,Training,1,0.0,1.0,0.0,1.0,0.5,2.0,,,,
s15,1,disease,2,AnoF,40.0,Training,1,0.0,1.0,0.0,0.0,0.75,1.0,,1.0,,
s15,1,disease,2,AnoF,41.0,Training,1,0.0,0.0,1.0,0.0,0.25,1.0,,2.0,,
s15,1,disease,2,AnoF,42.0,Training,1,0.0,0.0,1.0,0.0,0.25,2.0,,2.0,,
s15,1,disease,2,AnoF,43.0,Training,1,0.0,1.0,1.0,1.0,0.25,2.0,,2.0,,
s15,1,disease,2,AnoF,44.0,Training,1,1.0,0.0,0.0,0.0,0.75,1.0,,1.0,,
s15,1,disease,2,AnoF,45.0,Training,1,0.0,1.0,0.0,0.0,0.75,1.0,,1.0,,
s15,1,disease,2,AnoF,46.0,Training,1,0.0,0.0,0.0,1.0,0.25,2.0,,2.0,,
s15,1,disease,2,AnoF,47.0,Training,1,1.0,0.0,1.0,0.0,0.5,1.0,,,,
s15,1,disease,2,AnoF,48.0,Training,1,0.0,0.0,1.0,0.0,0.25,1.0,,2.0,,
s15,1,disease,2,AnoF,49.0,Training,1,1.0,1.0,0.0,0.0,1.0,1.0,,1.0,,
s15,1,disease,2,AnoF,50.0,Training,1,1.0,1.0,1.0,0.0,0.75,1.0,,1.0,,
s15,1,disease,2,AnoF,51.0,Training,1,1.0,1.0,0.0,1.0,0.75,2.0,,1.0,,
s15,1,disease,2,AnoF,52.0,Training,1,0.0,0.0,1.0,0.0,0.25,1.0,,2.0,,
s15,1,disease,2,AnoF,53.0,Test,1,0.0,1.0,0.0,1.0,0.5,,1.0,,9.214,
s15,1,disease,2,AnoF,54.0,Test,1,1.0,1.0,0.0,0.0,1.0,,1.0,1.0,2.548,
s15,1,disease,2,AnoF,55.0,Test,1,1.0,1.0,1.0,0.0,0.75,,2.0,1.0,1.773,
s15,1,disease,2,AnoF,56.0,Test,1,0.0,0.0,1.0,0.0,0.25,,1.0,2.0,1.202,
s15,1,disease,2,AnoF,57.0,Test,1,1.0,0.0,1.0,1.0,0.25,,2.0,2.0,2.381,
s15,1,disease,2,AnoF,58.0,Test,1,1.0,1.0,0.0,1.0,0.75,,2.0,1.0,1.446,
s15,1,disease,2,AnoF,59.0,Test,1,0.0,0.0,1.0,1.0,0.0,,2.0,2.0,4.488,
s15,1,disease,2,AnoF,60.0,Test,1,0.0,1.0,1.0,0.0,0.5,,1.0,,3.927,
s15,1,disease,2,AnoF,61.0,Test,1,0.0,1.0,1.0,1.0,0.25,,2.0,2.0,10.494,
s15,1,disease,2,AnoF,62.0,Test,1,0.0,0.0,0.0,1.0,0.25,,2.0,2.0,2.642,
s15,1,disease,2,AnoF,63.0,Test,1,1.0,0.0,1.0,0.0,0.5,,2.0,,5.85,
s15,1,disease,2,AnoF,64.0,Test,1,0.0,1.0,0.0,0.0,0.75,,1.0,1.0,3.448,
s15,1,disease,2,AnoF,65.0,Test,1,1.0,0.0,0.0,1.0,0.5,,2.0,,2.691,
s15,1,disease,2,AnoF,66.0,Test,1,1.0,0.0,0.0,0.0,0.75,,2.0,1.0,1.427,
s15,1,weather,2,FnoA,1.0,Training,1,1.0,0.0,0.0,0.0,0.75,2.0,1.0,1.0,40.92,0.0
s15,1,weather,2,FnoA,2.0,Training,1,0.0,0.0,1.0,0.0,0.25,1.0,1.0,2.0,3.228,1.0
s15,1,weather,2,FnoA,3.0,Training,1,1.0,1.0,0.0,0.0,1.0,1.0,1.0,1.0,3.521,1.0
s15,1,weather,2,FnoA,4.0,Training,1,0.0,1.0,1.0,1.0,0.25,2.0,1.0,2.0,7.89,0.0
s15,1,weather,2,FnoA,5.0,Training,1,0.0,1.0,1.0,1.0,0.25,1.0,2.0,2.0,1.642,0.0
s15,1,weather,2,FnoA,6.0,Training,1,0.0,1.0,1.0,1.0,0.25,2.0,1.0,2.0,3.594,0.0
s15,1,weather,2,FnoA,7.0,Training,1,0.0,1.0,0.0,1.0,0.5,2.0,2.0,,1.602,1.0
s15,1,weather,2,FnoA,8.0,Training,1,0.0,0.0,1.0,1.0,0.0,2.0,1.0,2.0,4.918,0.0
s15,1,weather,2,FnoA,9.0,Training,1,1.0,1.0,0.0,1.0,0.75,1.0,2.0,1.0,1.213,0.0
s15,1,weather,2,FnoA,10.0,Training,1,0.0,1.0,0.0,1.0,0.5,1.0,2.0,,1.214,0.0
s15,1,weather,2,FnoA,11.0,Training,1,0.0,0.0,0.0,1.0,0.25,2.0,2.0,2.0,1.486,1.0
s15,1,weather,2,FnoA,12.0,Training,1,1.0,1.0,0.0,1.0,0.75,2.0,2.0,1.0,1.547,1.0
s15,1,weather,2,FnoA,13.0,Training,1,0.0,0.0,1.0,0.0,0.25,2.0,1.0,2.0,1.328,0.0
s15,1,weather,2,FnoA,14.0,Training,1,1.0,1.0,1.0,0.0,0.75,2.0,1.0,1.0,1.387,0.0
s15,1,weather,2,FnoA,15.0,Training,1,1.0,1.0,0.0,0.0,1.0,1.0,1.0,1.0,2.818,1.0
s15,1,weather,2,FnoA,16.0,Training,1,0.0,1.0,0.0,0.0,0.75,1.0,2.0,1.0,1.352,0.0
s15,1,weather,2,FnoA,17.0,Training,1,0.0,0.0,1.0,1.0,0.0,2.0,1.0,2.0,1.936,0.0
s15,1,weather,2,FnoA,18.0,Training,1,1.0,0.0,0.0,1.0,0.5,1.0,2.0,,4.072,0.0
s15,1,weather,2,FnoA,19.0,Training,1,0.0,0.0,0.0,1.0,0.25,2.0,2.0,2.0,2.368,1.0
s15,1,weather,2,FnoA,20.0,Training,1,1.0,0.0,1.0,1.0,0.25,1.0,2.0,2.0,1.424,0.0
s15,1,weather,2,FnoA,21.0,Training,1,0.0,1.0,0.0,1.0,0.5,1.0,2.0,,1.546,0.0
s15,1,weather,2,FnoA,22.0,Training,1,1.0,1.0,1.0,0.0,0.75,1.0,1.0,1.0,3.974,1.0
s15,1,weather,2,FnoA,23.0,Training,1,1.0,1.0,0.0,1.0,0.75,1.0,1.0,1.0,3.455,1.0
s15,1,weather,2,FnoA,24.0,Training,1,0.0,1.0,1.0,0.0,0.5,2.0,1.0,,1.943,0.0
s15,1,weather,2,FnoA,25.0,Training,1,1.0,0.0,1.0,1.0,0.25,2.0,1.0,2.0,2.776,0.0
s15,1,weather,2,FnoA,26.0,Training,1,0.0,1.0,1.0,0.0,0.5,2.0,1.0,,3.529,0.0
s15,1,weather,2,FnoA,27.0,Training,1,1.0,0.0,0.0,0.0,0.75,1.0,2.0,1.0,1.148,0.0
s15,1,weather,2,FnoA,28.0,Training,1,0.0,0.0,1.0,0.0,0.25,2.0,1.0,2.0,5.085,0.0
s15,1,weather,2,FnoA,29.0,Training,1,0.0,0.0,1.0,1.0,0.0,2.0,2.0,2.0,1.083,1.0
s15,1,weather,2,FnoA,30.0,Training,1,1.0,1.0,1.0,0.0,0.75,1.0,1.0,1.0,1.658,1.0
s15,1,weather,2,FnoA,31.0,Training,1,1.0,0.0,0.0,1.0,0.5,2.0,2.0,,1.453,1.0
s15,1,weather,2,FnoA,32.0,Training,1,1.0,0.0,0.0,0.0,0.75,1.0,2.0,1.0,1.337,0.0
s15,1,weather,2,FnoA,33.0,Training,1,0.0,1.0,0.0,0.0,0.75,2.0,2.0,1.0,1.542,1.0
s15,1,weather,2,FnoA,34.0,Training,1,0.0,0.0,0.0,1.0,0.25,1.0,2.0,2.0,1.402,0.0
s15,1,weather,2,FnoA,35.0,Training,1,1.0,0.0,1.0,0.0,0.5,2.0,1.0,,1.834,0.0
s15,1,weather,2,FnoA,36.0,Training,1,1.0,0.0,1.0,0.0,0.5,1.0,1.0,,1.265,1.0
s15,1,weather,2,FnoA,37.0,Training,1,1.0,0.0,0.0,1.0,0.5,2.0,2.0,,1.358,1.0
s15,1,weather,2,FnoA,38.0,Training,1,1.0,0.0,1.0,0.0,0.5,1.0,1.0,,3.569,1.0
s15,1,weather,2,FnoA,39.0,Training,1,1.0,1.0,0.0,0.0,1.0,1.0,2.0,1.0,1.569,0.0
s15,1,weather,2,FnoA,40.0,Training,1,1.0,1.0,1.0,0.0,0.75,1.0,1.0,1.0,3.595,1.0
s15,1,weather,2,FnoA,41.0,Training,1,0.0,1.0,0.0,0.0,0.75,1.0,2.0,1.0,4.093,0.0
s15,1,weather,2,FnoA,42.0,Training,1,1.0,1.0,0.0,1.0,0.75,1.0,2.0,1.0,1.015,0.0
s15,1,weather,2,FnoA,43.0,Training,1,0.0,0.0,1.0,1.0,0.0,2.0,2.0,2.0,1.418,1.0
s15,1,weather,2,FnoA,44.0,Training,1,0.0,1.0,0.0,1.0,0.5,2.0,2.0,,0.75,1.0
s15,1,weather,2,FnoA,45.0,Training,1,1.0,1.0,0.0,0.0,1.0,1.0,1.0,1.0,0.886,1.0
s15,1,weather,2,FnoA,46.0,Training,1,0.0,0.0,0.0,1.0,0.25,2.0,1.0,2.0,1.526,0.0
s15,1,weather,2,FnoA,47.0,Training,1,0.0,1.0,1.0,0.0,0.5,1.0,1.0,,1.344,1.0
s15,1,weather,2,FnoA,48.0,Training,1,0.0,1.0,1.0,0.0,0.5,1.0,1.0,,1.127,1.0
s15,1,weather,2,FnoA,49.0,Training,1,0.0,1.0,0.0,0.0,0.75,1.0,1.0,1.0,1.412,1.0
s15,1,weather,2,FnoA,50.0,Training,1,1.0,0.0,0.0,1.0,0.5,1.0,2.0,,1.349,0.0
s15,1,weather,2,FnoA,51.0,Training,1,1.0,0.0,0.0,0.0,0.75,1.0,1.0,1.0,1.898,1.0
s15,1,weather,2,FnoA,52.0,Training,1,1.0,0.0,1.0,1.0,0.25,2.0,1.0,2.0,1.493,0.0
s15,1,weather,2,FnoA,53.0,Training,0,0.0,1.0,1.0,1.0,0.25,2.0,,2.0,6.662,
s15,1,weather,2,FnoA,54.0,Training,0,1.0,0.0,1.0,1.0,0.25,2.0,,2.0,1.429,
s15,1,weather,2,FnoA,55.0,Training,0,1.0,0.0,1.0,0.0,0.5,2.0,,,0.998,
s15,1,weather,2,FnoA,56.0,Training,0,0.0,0.0,1.0,0.0,0.25,2.0,,2.0,2.222,
s15,1,weather,2,FnoA,57.0,Test,1,1.0,1.0,0.0,1.0,0.75,,2.0,1.0,5.092,
s15,1,weather,2,FnoA,58.0,Test,1,0.0,1.0,1.0,0.0,0.5,,2.0,,6.922,
s15,1,weather,2,FnoA,59.0,Test,1,0.0,0.0,1.0,0.0,0.25,,2.0,2.0,1.495,
s15,1,weather,2,FnoA,60.0,Test,1,1.0,0.0,0.0,0.0,0.75,,2.0,1.0,1.218,
s15,1,weather,2,FnoA,61.0,Test,1,1.0,0.0,1.0,1.0,0.25,,1.0,2.0,1.004,
s15,1,weather,2,FnoA,62.0,Test,1,0.0,1.0,1.0,1.0,0.25,,2.0,2.0,3.131,
s15,1,weather,2,FnoA,63.0,Test,1,1.0,1.0,0.0,0.0,1.0,,2.0,1.0,1.101,
s15,1,weather,2,FnoA,64.0,Test,1,0.0,1.0,0.0,0.0,0.75,,2.0,1.0,2.191,
s15,1,weather,2,FnoA,65.0,Test,1,0.0,1.0,0.0,1.0,0.5,,2.0,,1.539,
s15,1,weather,2,FnoA,66.0,Test,1,1.0,1.0,1.0,0.0,0.75,,1.0,1.0,1.081,
s15,1,weather,2,FnoA,67.0,Test,1,0.0,0.0,1.0,1.0,0.0,,1.0,2.0,7.049,
s15,1,weather,2,FnoA,68.0,Test,1,1.0,0.0,1.0,0.0,0.5,,1.0,,0.896,
s15,1,weather,2,FnoA,69.0,Test,1,1.0,0.0,0.0,1.0,0.5,,2.0,,2.245,
s15,1,weather,2,FnoA,70.0,Test,1,0.0,0.0,0.0,1.0,0.25,,2.0,2.0,1.016,
s16,2,disease,3,AnoF,1.0,Training,1,1.0,0.0,0.0,0.0,0.75,2.0,,1.0,,
s16,2,disease,3,AnoF,2.0,Training,1,0.0,0.0,1.0,1.0,0.0,2.0,,2.0,,
s16,2,disease,3,AnoF,3.0,Training,1,1.0,0.0,0.0,0.0,0.75,1.0,,1.0,,
s16,2,disease,3,AnoF,4.0,Training,1,0.0,0.0,1.0,0.0,0.25,1.0,,2.0,,
s16,2,disease,3,AnoF,5.0,Training,1,0.0,0.0,1.0,0.0,0.25,2.0,,2.0,,
s16,2,disease,3,AnoF,6.0,Training,1,0.0,0.0,1.0,0.0,0.25,1.0,,2.0,,
s16,2,disease,3,AnoF,7.0,Training,1,0.0,1.0,1.0,1.0,0.25,2.0,,2.0,,
s16,2,disease,3,AnoF,8.0,Training,1,0.0,0.0,0.0,1.0,0.25,2.0,,2.0,,
s16,2,disease,3,AnoF,9.0,Training,1,1.0,0.0,1.0,1.0,0.25,2.0,,2.0,,
s16,2,disease,3,AnoF,10.0,Training,1,0.0,0.0,1.0,0.0,0.25,2.0,,2.0,,
s16,2,disease,3,AnoF,11.0,Training,1,0.0,0.0,0.0,1.0,0.25,2.0,,2.0,,
s16,2,disease,3,AnoF,12.0,Training,1,1.0,1.0,0.0,1.0,0.75,1.0,,1.0,,
s16,2,disease,3,AnoF,13.0,Training,1,0.0,0.0,1.0,0.0,0.25,1.0,,2.0,,
s16,2,disease,3,AnoF,14.0,Training,1,1.0,0.0,0.0,1.0,0.5,2.0,,,,
s16,2,disease,3,AnoF,15.0,Training,1,1.0,0.0,0.0,0.0,0.75,1.0,,1.0,,
s16,2,disease,3,AnoF,16.0,Training,1,0.0,1.0,0.0,0.0,0.75,1.0,,1.0,,
s16,2,disease,3,AnoF,17.0,Training,1,0.0,0.0,0.0,1.0,0.25,2.0,,2.0,,
s16,2,disease,3,AnoF,18.0,Training,1,1.0,0.0,1.0,0.0,0.5,1.0,,,,
s16,2,disease,3,AnoF,19.0,Training,1,0.0,0.0,0.0,1.0,0.25,2.0,,2.0,,
s16,2,disease,3,AnoF,20.0,Training,1,0.0,1.0,0.0,0.0,0.75,2.0,,1.0,,
s16,2,disease,3,AnoF,21.0,Training,1,1.0,1.0,1.0,0.0,0.75,1.0,,1.0,,
s16,2,disease,3,AnoF,22.0,Training,1,1.0,0.0,1.0,1.0,0.25,1.0,,2.0,,
s16,2,disease,3,AnoF,23.0,Training,1,0.0,1.0,0.0,1.0,0.5,1.0,,,,
s16,2,disease,3,AnoF,24.0,Training,1,0.0,1.0,0.0,0.0,0.75,2.0,,1.0,,
s16,2,disease,3,AnoF,25.0,Training,1,1.0,0.0,0.0,0.0,0.75,1.0,,1.0,,
s16,2,disease,3,AnoF,26.0,Training,1,0.0,0.0,1.0,1.0,0.0,2.0,,2.0,,
s16,2,disease,3,AnoF,27.0,Training,1,0.0,0.0,0.0,1.0,0.25,1.0,,2.0,,
s16,2,disease,3,AnoF,28.0,Training,1,1.0,0.0,1.0,0.0,0.5,1.0,,,,
s16,2,disease,3,AnoF,29.0,Training,1,1.0,0.0,0.0,0.0,0.75,1.0,,1.0,,
s16,2,disease,3,AnoF,30.0,Training,1,0.0,1.0,0.0,0.0,0.75,1.0,,1.0,,
s16,2,disease,3,AnoF,31.0,Training,1,0.0,0.0,0.0,1.0,0.25,2.0,,2.0,,
s16,2,disease,3,AnoF,32.0,Training,1,1.0,1.0,0.0,0.0,1.0,1.0,,1.0,,
s16,2,disease,3,AnoF,33.0,Training,1,1.0,1.0,0.0,0.0,1.0,1.0,,1.0,,
s16,2,disease,3,AnoF,34.0,Training,1,1.0,0.0,1.0,0.0,0.5,2.0,,,,
s16,2,disease,3,AnoF,35.0,Training,1,0.0,0.0,1.0,1.0,0.0,2.0,,2.0,,
s16,2,disease,3,AnoF,36.0,Training,1,0.0,0.0,1.0,0.0,0.25,2.0,,2.0,,
s16,2,disease,3,AnoF,37.0,Training,1,1.0,1.0,0.0,0.0,1.0,1.0,,1.0,,
s16,2,disease,3,AnoF,38.0,Training,1,0.0,1.0,1.0,0.0,0.5,2.0,,,,
s16,2,disease,3,AnoF,39.0,Training,1,1.0,0.0,0.0,1.0,0.5,1.0,,,,
s16,2,disease,3,AnoF,40.0,Training,1,0.0,1.0,0.0,1.0,0.5,2.0,,,,
s16,2,disease,3,AnoF,41.0,Training,1,0.0,0.0,0.0,1.0,0.25,2.0,,2.0,,
s16,2,disease,3,AnoF,42.0,Training,1,0.0,0.0,1.0,1.0,0.0,2.0,,2.0,,
s16,2,disease,3,AnoF,43.0,Training,1,0.0,1.0,0.0,1.0,0.5,2.0,,,,
s16,2,disease,3,AnoF,44.0,Training,1,0.0,1.0,1.0,0.0,0.5,2.0,,,,
s16,2,disease,3,AnoF,45.0,Training,1,1.0,0.0,1.0,0.0,0.5,1.0,,,,
s16,2,disease,3,AnoF,46.0,Training,1,1.0,0.0,0.0,0.0,0.75,1.0,,1.0,,
s16,2,disease,3,AnoF,47.0,Training,1,0.0,1.0,0.0,0.0,0.75,2.0,,1.0,,
s16,2,disease,3,AnoF,48.0,Training,1,1.0,0.0,0.0,0.0,0.75,1.0,,1.0,,
s16,2,disease,3,AnoF,49.0,Training,1,0.0,1.0,0.0,1.0,0.5,2.0,,,,
s16,2,disease,3,AnoF,50.0,Training,1,0.0,1.0,0.0,0.0,0.75,1.0,,1.0,,
s16,2,disease,3,AnoF,51.0,Training,1,1.0,1.0,0.0,0.0,1.0,1.0,,1.0,,
s16,2,disease,3,AnoF,52.0,Training,1,1.0,1.0,0.0,1.0,0.75,2.0,,1.0,,
s16,2,disease,3,AnoF,53.0,Test,1,0.0,1.0,0.0,0.0,0.75,,2.0,1.0,6.463,
s16,2,disease,3,AnoF,54.0,Test,1,0.0,1.0,0.0,1.0,0.5,,2.0,,2.218,
s16,2,disease,3,AnoF,55.0,Test,1,0.0,1.0,1.0,1.0,0.25,,1.0,2.0,3.491,
s16,2,disease,3,AnoF,56.0,Test,1,0.0,0.0,1.0,1.0,0.0,,2.0,2.0,7.075,
s16,2,disease,3,AnoF,57.0,Test,1,1.0,0.0,1.0,1.0,0.25,,1.0,2.0,5.269,
s16,2,disease,3,AnoF,58.0,Test,1,1.0,1.0,1.0,0.0,0.75,,1.0,1.0,1.591,
s16,2,disease,3,AnoF,59.0,Test,1,0.0,1.0,1.0,0.0,0.5,,1.0,,4.653,
s16,2,disease,3,AnoF,60.0,Test,1,1.0,1.0,0.0,0.0,1.0,,1.0,1.0,5.576,
s16,2,disease,3,AnoF,61.0,Test,1,1.0,1.0,0.0,1.0,0.75,,2.0,1.0,3.628,
s16,2,disease,3,AnoF,62.0,Test,1,1.0,0.0,0.0,1.0,0.5,,1.0,,5.726,
s16,2,disease,3,AnoF,63.0,Test,1,0.0,0.0,0.0,1.0,0.25,,2.0,2.0,3.914,
s16,2,disease,3,AnoF,64.0,Test,1,0.0,0.0,1.0,0.0,0.25,,1.0,2.0,2.692,
s16,2,disease,3,AnoF,65.0,Test,1,1.0,0.0,0.0,0.0,0.75,,2.0,1.0,3.288,
s16,2,disease,3,AnoF,66.0,Test,1,1.0,0.0,1.0,0.0,0.5,,1.0,,4.445,
s16,2,weather,3,FnoA,1.0,Training,1,1.0,0.0,1.0,0.0,0.5,2.0,2.0,,9.338,1.0
s16,2,weather,3,FnoA,2.0,Training,1,1.0,0.0,0.0,1.0,0.5,1.0,2.0,,3.817,0.0
s16,2,weather,3,FnoA,3.0,Training,1,1.0,1.0,0.0,0.0,1.0,1.0,1.0,1.0,5.355,1.0
s16,2,weather,3,FnoA,4.0,Training,1,0.0,1.0,0.0,1.0,0.5,1.0,1.0,,2.518,1.0
s16,2,weather,3,FnoA,5.0,Training,1,1.0,1.0,0.0,1.0,0.75,1.0,2.0,1.0,3.412,0.0
s16,2,weather,3,FnoA,6.0,Training,1,0.0,1.0,0.0,0.0,0.75,2.0,1.0,1.0,1.632,0.0
s16,2,weather,3,FnoA,7.0,Training,1,0.0,1.0,1.0,0.0,0.5,1.0,1.0,,1.826,1.0
s16,2,weather,3,FnoA,8.0,Training,1,0.0,1.0,0.0,0.0,0.75,1.0,2.0,1.0,2.644,0.0
s16,2,weather,3,FnoA,9.0,Training,1,0.0,1.0,0.0,1.0,0.5,2.0,1.0,,1.654,0.0
s16,2,weather,3,FnoA,10.0,Training,1,0.0,1.0,1.0,1.0,0.25,1.0,2.0,2.0,1.89,0.0
s16,2,weather,3,FnoA,11.0,Training,1,1.0,1.0,0.0,1.0,0.75,1.0,2.0,1.0,1.637,0.0
s16,2,weather,3,FnoA,12.0,Training,1,1.0,0.0,0.0,1.0,0.5,2.0,2.0,,1.851,1.0
s16,2,weather,3,FnoA,13.0,Training,1,0.0,0.0,1.0,1.0,0.0,2.0,1.0,2.0,1.596,0.0
s16,2,weather,3,FnoA,14.0,Training,1,1.0,1.0,0.0,0.0,1.0,1.0,2.0,1.0,2.684,0.0
s16,2,weather,3,FnoA,15.0,Training,1,0.0,0.0,1.0,1.0,0.0,2.0,1.0,2.0,1.849,0.0
s16,2,weather,3,FnoA,16.0,Training,1,1.0,0.0,1.0,1.0,0.25,2.0,2.0,2.0,2.52,1.0
s16,2,weather,3,FnoA,17.0,Training,1,1.0,1.0,0.0,0.0,1.0,1.0,2.0,1.0,4.013,0.0
s16,2,weather,3,FnoA,18.0,Training,1,0.0,1.0,1.0,1.0,0.25,2.0,1.0,2.0,1.996,0.0
s16,2,weather,3,FnoA,19.0,Training,1,0.0,0.0,0.0,1.0,0.25,1.0,1.0,2.0,1.851,1.0
s16,2,weather,3,FnoA,20.0,Training,1,1.0,0.0,1.0,1.0,0.25,1.0,1.0,2.0,2.311,1.0
s16,2,weather,3,FnoA,21.0,Training,1,1.0,0.0,0.0,0.0,0.75,1.0,2.0,1.0,1.74,0.0
s16,2,weather,3,FnoA,22.0,Training,1,1.0,0.0,0.0,1.0,0.5,2.0,1.0,,2.661,0.0
s16,2,weather,3,FnoA,23.0,Training,1,0.0,0.0,1.0,0.0,0.25,1.0,1.0,2.0,2.446,1.0
s16,2,weather,3,FnoA,24.0,Training,1,0.0,0.0,1.0,1.0,0.0,2.0,1.0,2.0,2.822,0.0
s16,2,weather,3,FnoA,25.0,Training,1,1.0,1.0,1.0,0.0,0.75,2.0,1.0,1.0,2.71,0.0
s16,2,weather,3,FnoA,26.0,Training,1,1.0,0.0,0.0,0.0,0.75,1.0,1.0,1.0,1.843,1.0
s16,2,weather,3,FnoA,27.0,Training,1,0.0,1.0,1.0,1.0,0.25,2.0,1.0,2.0,4.775,0.0
s16,2,weather,3,FnoA,28.0,Training,1,1.0,1.0,1.0,0.0,0.75,1.0,1.0,1.0,3.221,1.0
s16,2,weather,3,FnoA,29.0,Training,1,1.0,0.0,1.0,1.0,0.25,2.0,2.0,2.0,2.893,1.0
s16,2,weather,3,FnoA,30.0,Training,1,1.0,0.0,0.0,1.0,0.5,1.0,2.0,,4.24,0.0
s16,2,weather,3,FnoA,31.0,Training,1,0.0,0.0,1.0,1.0,0.0,2.0,2.0,2.0,2.346,1.0
s16,2,weather,3,FnoA,32.0,Training,1,0.0,1.0,1.0,1.0,0.25,2.0,2.0,2.0,4.2,1.0
s16,2,weather,3,FnoA,33.0,Training,1,1.0,0.0,0.0,0.0,0.75,2.0,1.0,1.0,2.161,0.0
s16,2,weather,3,FnoA,34.0,Training,1,0.0,0.0,0.0,1.0,0.25,2.0,1.0,2.0,2.807,0.0
s16,2,weather,3,FnoA,35.0,Training,1,0.0,1.0,0.0,1.0,0.5,2.0,1.0,,1.216,0.0
s16,2,weather,3,FnoA,36.0,Training,1,1.0,0.0,1.0,0.0,0.5,1.0,1.0,,2.569,1.0
s16,2,weather,3,FnoA,37.0,Training,1,0.0,1.0,1.0,0.0,0.5,2.0,2.0,,1.435,1.0
s16,2,weather,3,FnoA,38.0,Training,1,0.0,0.0,1.0,0.0,0.25,2.0,2.0,2.0,1.272,1.0
s16,2,weather,3,FnoA,39.0,Training,1,0.0,0.0,1.0,0.0,0.25,2.0,2.0,2.0,1.21,1.0
s16,2,weather,3,FnoA,40.0,Training,1,0.0,1.0,1.0,0.0,0.5,1.0,1.0,,3.689,1.0
s16,2,weather,3,FnoA,41.0,Training,1,1.0,0.0,1.0,0.0,0.5,2.0,2.0,,1.767,1.0
s16,2,weather,3,FnoA,42.0,Training,1,1.0,1.0,0.0,0.0,1.0,1.0,1.0,1.0,1.701,1.0
s16,2,weather,3,FnoA,43.0,Training,1,0.0,1.0,1.0,0.0,0.5,2.0,2.0,,1.138,1.0
s16,2,weather,3,FnoA,44.0,Training,1,1.0,1.0,1.0,0.0,0.75,1.0,2.0,1.0,2.98,0.0
s16,2,weather,3,FnoA,45.0,Training,1,1.0,0.0,1.0,0.0,0.5,1.0,2.0,,6.525,0.0
s16,2,weather,3,FnoA,46.0,Training,1,1.0,1.0,1.0,0.0,0.75,1.0,1.0,1.0,1.319,1.0
s16,2,weather,3,FnoA,47.0,Training,1,0.0,0.0,0.0,1.0,0.25,2.0,1.0,2.0,1.477,0.0
s16,2,weather,3,FnoA,48.0,Training,1,1.0,1.0,0.0,1.0,0.75,1.0,1.0,1.0,3.651,1.0
s16,2,weather,3,FnoA,49.0,Training,1,1.0,1.0,0.0,1.0,0.75,2.0,1.0,1.0,1.993,0.0
s16,2,weather,3,FnoA,50.0,Training,1,0.0,1.0,0.0,1.0,0.5,1.0,2.0,,1.107,0.0
s16,2,weather,3,FnoA,51.0,Training,1,0.0,1.0,0.0,0.0,0.75,1.0,2.0,1.0,2.402,0.0
s16,2,weather,3,FnoA,52.0,Training,1,0.0,1.0,0.0,0.0,0.75,1.0,1.0,1.0,0.718,1.0
s16,2,weather,3,FnoA,53.0,Training,1,1.0,0.0,0.0,0.0,0.75,1.0,1.0,1.0,2.479,1.0
s16,2,weather,3,FnoA,54.0,Training,1,0.0,0.0,0.0,1.0,0.25,2.0,2.0,2.0,1.903,1.0
s16,2,weather,3,FnoA,55.0,Training,1,1.0,0.0,1.0,1.0,0.25,2.0,2.0,2.0,1.955,1.0
s16,2,weather,3,FnoA,56.0,Training,1,0.0,0.0,1.0,0.0,0.25,2.0,2.0,2.0,2.974,1.0
s16,2,weather,3,FnoA,57.0,Test,1,1.0,1.0,0.0,0.0,1.0,,2.0,1.0,25.434,
s16,2,weather,3,FnoA,58.0,Test,1,0.0,1.0,0.0,0.0,0.75,,2.0,1.0,6.147,
s16,2,weather,3,FnoA,59.0,Test,1,1.0,0.0,1.0,0.0,0.5,,1.0,,1.451,
s16,2,weather,3,FnoA,60.0,Test,1,0.0,0.0,1.0,0.0,0.25,,1.0,2.0,2.798,
s16,2,weather,3,FnoA,61.0,Test,1,0.0,0.0,0.0,1.0,0.25,,2.0,2.0,2.004,
s16,2,weather,3,FnoA,62.0,Test,1,1.0,1.0,0.0,1.0,0.75,,1.0,1.0,2.818,
s16,2,weather,3,FnoA,63.0,Test,1,0.0,1.0,1.0,0.0,0.5,,2.0,,2.435,
s16,2,weather,3,FnoA,64.0,Test,1,0.0,1.0,0.0,1.0,0.5,,2.0,,2.855,
s16,2,weather,3,FnoA,65.0,Test,1,0.0,0.0,1.0,1.0,0.0,,1.0,2.0,2.161,
s16,2,weather,3,FnoA,66.0,Test,1,1.0,0.0,1.0,1.0,0.25,,2.0,2.0,3.542,
s16,2,weather,3,FnoA,67.0,Test,1,0.0,1.0,1.0,1.0,0.25,,1.0,2.0,2.755,
s16,2,weather,3,FnoA,68.0,Test,1,1.0,0.0,0.0,0.0,0.75,,2.0,1.0,1.9,
s16,2,weather,3,FnoA,69.0,Test,1,1.0,1.0,1.0,0.0,0.75,,2.0,1.0,1.998,
s16,2,weather,3,FnoA,70.0,Test,1,1.0,0.0,0.0,1.0,0.5,,1.0,,2.668,
s17,1,weather,4,AnoF,1.0,Training,1,0.0,1.0,0.0,0.0,0.75,2.0,,1.0,,
s17,1,weather,4,AnoF,2.0,Training,1,1.0,0.0,0.0,0.0,0.75,1.0,,1.0,,
s17,1,weather,4,AnoF,3.0,Training,1,1.0,0.0,0.0,0.0,0.75,1.0,,1.0,,
s17,1,weather,4,AnoF,4.0,Training,1,0.0,1.0,0.0,1.0,0.5,2.0,,,,
s17,1,weather,4,AnoF,5.0,Training,1,0.0,0.0,1.0,0.0,0.25,2.0,,2.0,,
s17,1,weather,4,AnoF,6.0,Training,1,0.0,0.0,0.0,1.0,0.25,2.0,,2.0,,
s17,1,weather,4,AnoF,7.0,Training,1,0.0,1.0,1.0,0.0,0.5,2.0,,,,
s17,1,weather,4,AnoF,8.0,Training,1,1.0,0.0,0.0,0.0,0.75,1.0,,1.0,,
s17,1,weather,4,AnoF,9.0,Training,1,0.0,1.0,0.0,0.0,0.75,2.0,,1.0,,
s17,1,weather,4,AnoF,10.0,Training,1,1.0,0.0,1.0,0.0,0.5,2.0,,,,
s17,1,weather,4,AnoF,11.0,Training,1,0.0,1.0,1.0,0.0,0.5,2.0,,,,
s17,1,weather,4,AnoF,12.0,Training,1,1.0,1.0,0.0,1.0,0.75,1.0,,1.0,,
s17,1,weather,4,AnoF,13.0,Training,1,0.0,0.0,0.0,1.0,0.25,1.0,,2.0,,
s17,1,weather,4,AnoF,14.0,Training,1,0.0,0.0,1.0,0.0,0.25,2.0,,2.0,,
s17,1,weather,4,AnoF,15.0,Training,1,0.0,0.0,1.0,1.0,0.0,2.0,,2.0,,
s17,1,weather,4,AnoF,16.0,Training,1,1.0,0.0,0.0,0.0,0.75,1.0,,1.0,,
s17,1,weather,4,AnoF,17.0,Training,1,0.0,1.0,0.0,1.0,0.5,1.0,,,,
s17,1,weather,4,AnoF,18.0,Training,1,0.0,1.0,0.0,0.0,0.75,1.0,,1.0,,
s17,1,weather,4,AnoF,19.0,Training,1,1.0,1.0,0.0,0.0,1.0,1.0,,1.0,,
s17,1,weather,4,AnoF,20.0,Training,1,1.0,0.0,1.0,1.0,0.25,1.0,,2.0,,
s17,1,weather,4,AnoF,21.0,Training,1,0.0,1.0,0.0,1.0,0.5,2.0,,,,
s17,1,weather,4,AnoF,22.0,Training,1,0.0,0.0,1.0,1.0,0.0,2.0,,2.0,,
s17,1,weather,4,AnoF,23.0,Training,1,0.0,0.0,0.0,1.0,0.25,2.0,,2.0,,
s17,1,weather,4,AnoF,24.0,Training,1,1.0,1.0,0.0,0.0,1.0,1.0,,1.0,,
s17,1,weather,4,AnoF,25.0,Training,1,0.0,0.0,0.0,1.0,0.25,2.0,,2.0,,
s17,1,weather,4,AnoF,26.0,Training,1,1.0,0.0,0.0,0.0,0.75,2.0,,1.0,,
s17,1,weather,4,AnoF,27.0,Training,1,1.0,0.0,0.0,0.0,0.75,1.0,,1.0,,
s17,1,weather,4,AnoF,28.0,Training,1,1.0,1.0,0.0,0.0,1.0,1.0,,1.0,,
s17,1,weather,4,AnoF,29.0,Training,1,0.0,1.0,0.0,0.0,0.75,2.0,,1.0,,
s17,1,weather,4,AnoF,30.0,Training,1,0.0,0.0,1.0,1.0,0.0,2.0,,2.0,,
s17,1,weather,4,AnoF,31.0,Training,1,0.0,0.0,1.0,1.0,0.0,2.0,,2.0,,
s17,1,weather,4,AnoF,32.0,Training,1,0.0,0.0,0.0,1.0,0.25,2.0,,2.0,,
s17,1,weather,4,AnoF,33.0,Training,1,1.0,0.0,1.0,1.0,0.25,2.0,,2.0,,
s17,1,weather,4,AnoF,34.0,Training,1,1.0,0.0,1.0,0.0,0.5,1.0,,,,
s17,1,weather,4,AnoF,35.0,Training,1,1.0,0.0,0.0,1.0,0.5,2.0,,,,
s17,1,weather,4,AnoF,36.0,Training,1,1.0,0.0,1.0,0.0,0.5,1.0,,,,
s17,1,weather,4,AnoF,37.0,Training,1,1.0,0.0,0.0,1.0,0.5,1.0,,,,
s17,1,weather,4,AnoF,38.0,Training,1,0.0,0.0,0.0,1.0,0.25,2.0,,2.0,,
s17,1,weather,4,AnoF,39.0,Training,1,0.0,1.0,0.0,1.0,0.5,2.0,,,,
s17,1,weather,4,AnoF,40.0,Training,1,0.0,1.0,0.0,0.0,0.75,1.0,,1.0,,
s17,1,weather,4,AnoF,41.0,Training,1,0.0,0.0,1.0,0.0,0.25,1.0,,2.0,,
s17,1,weather,4,AnoF,42.0,Training,1,0.0,0.0,1.0,0.0,0.25,2.0,,2.0,,
s17,1,weather,4,AnoF,43.0,Training,1,0.0,1.0,1.0,1.0,0.25,2.0,,2.0,,
s17,1,weather,4,AnoF,44.0,Training,1,1.0,0.0,0.0,0.0,0.75,1.0,,1.0,,
s17,1,weather,4,AnoF,45.0,Training,1,0.0,1.0,0.0,0.0,0.75,1.0,,1.0,,
s17,1,weather,4,AnoF,46.0,Training,1,0.0,0.0,0.0,1.0,0.25,2.0,,2.0,,
s17,1,weather,4,AnoF,47.0,Training,1,1.0,0.0,1.0,0.0,0.5,1.0,,,,
s17,1,weather,4,AnoF,48.0,Training,1,0.0,0.0,1.0,0.0,0.25,1.0,,2.0,,
s17,1,weather,4,AnoF,49.0,Training,1,1.0,1.0,0.0,0.0,1.0,1.0,,1.0,,
s17,1,weather,4,AnoF,50.0,Training,1,1.0,1.0,1.0,0.0,0.75,1.0,,1.0,,
s17,1,weather,4,AnoF,51.0,Training,1,1.0,1.0,0.0,1.0,0.75,2.0,,1.0,,
s17,1,weather,4,AnoF,52.0,Training,1,0.0,0.0,1.0,0.0,0.25,1.0,,2.0,,
s17,1,weather,4,AnoF,53.0,Test,1,0.0,1.0,0.0,1.0,0.5,,2.0,,6.636,
s17,1,weather,4,AnoF,54.0,Test,1,1.0,1.0,0.0,0.0,1.0,,1.0,1.0,4.05,
s17,1,weather,4,AnoF,55.0,Test,1,1.0,1.0,1.0,0.0,0.75,,2.0,1.0,4.046,
s17,1,weather,4,AnoF,56.0,Test,1,0.0,0.0,1.0,0.0,0.25,,2.0,2.0,0.661,
s17,1,weather,4,AnoF,57.0,Test,1,1.0,0.0,1.0,1.0,0.25,,1.0,2.0,4.365,
s17,1,weather,4,AnoF,58.0,Test,1,1.0,1.0,0.0,1.0,0.75,,2.0,1.0,4.927,
s17,1,weather,4,AnoF,59.0,Test,1,0.0,0.0,1.0,1.0,0.0,,2.0,2.0,1.221,
s17,1,weather,4,AnoF,60.0,Test,1,0.0,1.0,1.0,0.0,0.5,,1.0,,2.089,
s17,1,weather,4,AnoF,61.0,Test,1,0.0,1.0,1.0,1.0,0.25,,2.0,2.0,2.257,
s17,1,weather,4,AnoF,62.0,Test,1,0.0,0.0,0.0,1.0,0.25,,2.0,2.0,0.569,
s17,1,weather,4,AnoF,63.0,Test,1,1.0,0.0,1.0,0.0,0.5,,1.0,,1.07,
s17,1,weather,4,AnoF,64.0,Test,1,0.0,1.0,0.0,0.0,0.75,,2.0,1.0,0.657,
s17,1,weather,4,AnoF,65.0,Test,1,1.0,0.0,0.0,1.0,0.5,,2.0,,1.025,
s17,1,weather,4,AnoF,66.0,Test,1,1.0,0.0,0.0,0.0,0.75,,1.0,1.0,0.894,
s17,1,disease,4,FnoA,2.0,Training,1,0.0,0.0,1.0,0.0,0.25,1.0,1.0,2.0,2.421,1.0
s17,1,disease,4,FnoA,3.0,Training,1,1.0,1.0,0.0,0.0,1.0,1.0,1.0,1.0,1.164,1.0
s17,1,disease,4,FnoA,4.0,Training,1,0.0,1.0,1.0,1.0,0.25,2.0,2.0,2.0,2.792,1.0
s17,1,disease,4,FnoA,5.0,Training,1,0.0,1.0,1.0,1.0,0.25,1.0,2.0,2.0,1.436,0.0
s17,1,disease,4,FnoA,6.0,Training,1,0.0,1.0,1.0,1.0,0.25,2.0,1.0,2.0,1.819,0.0
s17,1,disease,4,FnoA,7.0,Training,1,0.0,1.0,0.0,1.0,0.5,2.0,1.0,,2.057,0.0
s17,1,disease,4,FnoA,8.0,Training,1,0.0,0.0,1.0,1.0,0.0,2.0,2.0,2.0,1.211,1.0
s17,1,disease,4,FnoA,9.0,Training,1,1.0,1.0,0.0,1.0,0.75,1.0,2.0,1.0,1.356,0.0
s17,1,disease,4,FnoA,10.0,Training,1,0.0,1.0,0.0,1.0,0.5,1.0,2.0,,5.36,0.0
s17,1,disease,4,FnoA,11.0,Training,1,0.0,0.0,0.0,1.0,0.25,2.0,1.0,2.0,1.263,0.0
s17,1,disease,4,FnoA,12.0,Training,1,1.0,1.0,0.0,1.0,0.75,2.0,2.0,1.0,2.825,1.0
s17,1,disease,4,FnoA,13.0,Training,1,0.0,0.0,1.0,0.0,0.25,2.0,1.0,2.0,1.402,0.0
s17,1,disease,4,FnoA,14.0,Training,1,1.0,1.0,1.0,0.0,0.75,2.0,2.0,1.0,3.024,1.0
s17,1,disease,4,FnoA,15.0,Training,1,1.0,1.0,0.0,0.0,1.0,1.0,2.0,1.0,1.254,0.0
s17,1,disease,4,FnoA,16.0,Training,1,0.0,1.0,0.0,0.0,0.75,1.0,1.0,1.0,3.438,1.0
s17,1,disease,4,FnoA,17.0,Training,1,0.0,0.0,1.0,1.0,0.0,2.0,1.0,2.0,1.429,0.0
s17,1,disease,4,FnoA,18.0,Training,1,1.0,0.0,0.0,1.0,0.5,1.0,2.0,,1.242,0.0
s17,1,disease,4,FnoA,19.0,Training,1,0.0,0.0,0.0,1.0,0.25,2.0,2.0,2.0,2.383,1.0
s17,1,disease,4,FnoA,20.0,Training,1,1.0,0.0,1.0,1.0,0.25,1.0,2.0,2.0,1.063,0.0
s17,1,disease,4,FnoA,21.0,Training,1,0.0,1.0,0.0,1.0,0.5,1.0,2.0,,1.817,0.0
s17,1,disease,4,FnoA,22.0,Training,1,1.0,1.0,1.0,0.0,0.75,1.0,2.0,1.0,1.09,0.0
s17,1,disease,4,FnoA,23.0,Training,1,1.0,1.0,0.0,1.0,0.75,1.0,2.0,1.0,0.85,0.0
s17,1,disease,4,FnoA,24.0,Training,1,0.0,1.0,1.0,0.0,0.5,2.0,1.0,,0.485,0.0
s17,1,disease,4,FnoA,25.0,Training,1,1.0,0.0,1.0,1.0,0.25,2.0,2.0,2.0,0.887,1.0
s17,1,disease,4,FnoA,26.0,Training,1,0.0,1.0,1.0,0.0,0.5,2.0,2.0,,1.775,1.0
s17,1,disease,4,FnoA,27.0,Training,1,1.0,0.0,0.0,0.0,0.75,1.0,2.0,1.0,1.929,0.0
s17,1,disease,4,FnoA,28.0,Training,1,0.0,0.0,1.0,0.0,0.25,2.0,2.0,2.0,1.333,1.0
s17,1,disease,4,FnoA,29.0,Training,1,0.0,0.0,1.0,1.0,0.0,2.0,2.0,2.0,1.993,1.0
s17,1,disease,4,FnoA,30.0,Training,1,1.0,1.0,1.0,0.0,0.75,1.0,2.0,1.0,0.996,0.0
s17,1,disease,4,FnoA,31.0,Training,1,1.0,0.0,0.0,1.0,0.5,2.0,2.0,,2.061,1.0
s17,1,disease,4,FnoA,32.0,Training,1,1.0,0.0,0.0,0.0,0.75,1.0,2.0,1.0,0.787,0.0
s17,1,disease,4,FnoA,33.0,Training,1,0.0,1.0,0.0,0.0,0.75,2.0,1.0,1.0,1.545,0.0
s17,1,disease,4,FnoA,34.0,Training,1,0.0,0.0,0.0,1.0,0.25,1.0,2.0,2.0,0.794,0.0
s17,1,disease,4,FnoA,35.0,Training,1,1.0,0.0,1.0,0.0,0.5,2.0,2.0,,0.725,1.0
s17,1,disease,4,FnoA,36.0,Training,1,1.0,0.0,1.0,0.0,0.5,1.0,2.0,,0.669,0.0
s17,1,disease,4,FnoA,37.0,Training,1,1.0,0.0,0.0,1.0,0.5,2.0,1.0,,1.378,0.0
s17,1,disease,4,FnoA,38.0,Training,1,1.0,0.0,1.0,0.0,0.5,1.0,2.0,,0.861,0.0
s17,1,disease,4,FnoA,39.0,Training,1,1.0,1.0,0.0,0.0,1.0,1.0,1.0,1.0,0.868,1.0
s17,1,disease,4,FnoA,40.0,Training,1,1.0,1.0,1.0,0.0,0.75,1.0,1.0,1.0,1.34,1.0
s17,1,disease,4,FnoA,41.0,Training,1,0.0,1.0,0.0,0.0,0.75,1.0,1.0,1.0,1.707,1.0
s17,1,disease,4,FnoA,42.0,Training,1,1.0,1.0,0.0,1.0,0.75,1.0,1.0,1.0,0.576,1.0
s17,1,disease,4,FnoA,43.0,Training,1,0.0,0.0,1.0,1.0,0.0,2.0,1.0,2.0,0.785,0.0
s17,1,disease,4,FnoA,44.0,Training,1,0.0,1.0,0.0,1.0,0.5,2.0,1.0,,0.789,0.0
s17,1,disease,4,FnoA,45.0,Training,1,1.0,1.0,0.0,0.0,1.0,1.0,2.0,1.0,1.304,0.0
s17,1,disease,4,FnoA,46.0,Training,1,0.0,0.0,0.0,1.0,0.25,2.0,1.0,2.0,0.828,0.0
s17,1,disease,4,FnoA,47.0,Training,1,0.0,1.0,1.0,0.0,0.5,1.0,2.0,,0.818,0.0
s17,1,disease,4,FnoA,48.0,Training,1,0.0,1.0,1.0,0.0,0.5,1.0,1.0,,0.469,1.0
s17,1,disease,4,FnoA,49.0,Training,1,0.0,1.0,0.0,0.0,0.75,1.0,1.0,1.0,1.387,1.0
s17,1,disease,4,FnoA,50.0,Training,1,1.0,0.0,0.0,1.0,0.5,1.0,1.0,,0.669,1.0
s17,1,disease,4,FnoA,51.0,Training,1,1.0,0.0,0.0,0.0,0.75,1.0,2.0,1.0,1.507,0.0
s17,1,disease,4,FnoA,52.0,Training,1,1.0,0.0,1.0,1.0,0.25,2.0,2.0,2.0,1.122,1.0
s17,1,disease,4,FnoA,53.0,Training,0,0.0,1.0,1.0,1.0,0.25,2.0,,2.0,0.851,
s17,1,disease,4,FnoA,54.0,Training,0,1.0,0.0,1.0,1.0,0.25,2.0,,2.0,0.7,
s17,1,disease,4,FnoA,55.0,Training,0,1.0,0.0,1.0,0.0,0.5,2.0,,,0.572,
s17,1,disease,4,FnoA,56.0,Training,0,0.0,0.0,1.0,0.0,0.25,2.0,,2.0,0.481,
s17,1,disease,4,FnoA,57.0,Test,1,1.0,1.0,0.0,1.0,0.75,,2.0,1.0,1.786,
s17,1,disease,4,FnoA,58.0,Test,1,0.0,1.0,1.0,0.0,0.5,,2.0,,2.607,
s17,1,disease,4,FnoA,59.0,Test,1,0.0,0.0,1.0,0.0,0.25,,2.0,2.0,2.222,
s17,1,disease,4,FnoA,60.0,Test,1,1.0,0.0,0.0,0.0,0.75,,1.0,1.0,2.986,
s17,1,disease,4,FnoA,61.0,Test,1,1.0,0.0,1.0,1.0,0.25,,2.0,2.0,1.301,
s17,1,disease,4,FnoA,62.0,Test,1,0.0,1.0,1.0,1.0,0.25,,2.0,2.0,1.037,
s17,1,disease,4,FnoA,63.0,Test,1,1.0,1.0,0.0,0.0,1.0,,2.0,1.0,2.374,
s17,1,disease,4,FnoA,64.0,Test,1,0.0,1.0,0.0,0.0,0.75,,1.0,1.0,0.815,
s17,1,disease,4,FnoA,65.0,Test,1,0.0,1.0,0.0,1.0,0.5,,1.0,,0.688,
s17,1,disease,4,FnoA,66.0,Test,1,1.0,1.0,1.0,0.0,0.75,,2.0,1.0,2.492,
s17,1,disease,4,FnoA,67.0,Test,1,0.0,0.0,1.0,1.0,0.0,,2.0,2.0,1.02,
s17,1,disease,4,FnoA,68.0,Test,1,1.0,0.0,1.0,0.0,0.5,,1.0,,0.605,
s17,1,disease,4,FnoA,69.0,Test,1,1.0,0.0,0.0,1.0,0.5,,2.0,,3.318,
s17,1,disease,4,FnoA,70.0,Test,1,0.0,0.0,0.0,1.0,0.25,,1.0,2.0,0.668,
s18,1,disease,2,AnoF,1.0,Training,1,0.0,1.0,0.0,0.0,0.75,2.0,,1.0,,
s18,1,disease,2,AnoF,2.0,Training,1,1.0,0.0,0.0,0.0,0.75,1.0,,1.0,,
s18,1,disease,2,AnoF,3.0,Training,1,1.0,0.0,0.0,0.0,0.75,1.0,,1.0,,
s18,1,disease,2,AnoF,4.0,Training,1,0.0,1.0,0.0,1.0,0.5,2.0,,,,
s18,1,disease,2,AnoF,5.0,Training,1,0.0,0.0,1.0,0.0,0.25,2.0,,2.0,,
s18,1,disease,2,AnoF,6.0,Training,1,0.0,0.0,0.0,1.0,0.25,2.0,,2.0,,
s18,1,disease,2,AnoF,7.0,Training,1,0.0,1.0,1.0,0.0,0.5,2.0,,,,
s18,1,disease,2,AnoF,8.0,Training,1,1.0,0.0,0.0,0.0,0.75,1.0,,1.0,,
s18,1,disease,2,AnoF,9.0,Training,1,0.0,1.0,0.0,0.0,0.75,2.0,,1.0,,
s18,1,disease,2,AnoF,10.0,Training,1,1.0,0.0,1.0,0.0,0.5,2.0,,,,
s18,1,disease,2,AnoF,11.0,Training,1,0.0,1.0,1.0,0.0,0.5,2.0,,,,
s18,1,disease,2,AnoF,12.0,Training,1,1.0,1.0,0.0,1.0,0.75,1.0,,1.0,,
s18,1,disease,2,AnoF,13.0,Training,1,0.0,0.0,0.0,1.0,0.25,1.0,,2.0,,
s18,1,disease,2,AnoF,14.0,Training,1,0.0,0.0,1.0,0.0,0.25,2.0,,2.0,,
s18,1,disease,2,AnoF,15.0,Training,1,0.0,0.0,1.0,1.0,0.0,2.0,,2.0,,
s18,1,disease,2,AnoF,16.0,Training,1,1.0,0.0,0.0,0.0,0.75,1.0,,1.0,,
s18,1,disease,2,AnoF,17.0,Training,1,0.0,1.0,0.0,1.0,0.5,1.0,,,,
s18,1,disease,2,AnoF,18.0,Training,1,0.0,1.0,0.0,0.0,0.75,1.0,,1.0,,
s18,1,disease,2,AnoF,19.0,Training,1,1.0,1.0,0.0,0.0,1.0,1.0,,1.0,,
s18,1,disease,2,AnoF,20.0,Training,1,1.0,0.0,1.0,1.0,0.25,1.0,,2.0,,
s18,1,disease,2,AnoF,21.0,Training,1,0.0,1.0,0.0,1.0,0.5,2.0,,,,
s18,1,disease,2,AnoF,22.0,Training,1,0.0,0.0,1.0,1.0,0.0,2.0,,2.0,,
s18,1,disease,2,AnoF,23.0,Training,1,0.0,0.0,0.0,1.0,0.25,2.0,,2.0,,
s18,1,disease,2,AnoF,24.0,Training,1,1.0,1.0,0.0,0.0,1.0,1.0,,1.0,,
s18,1,disease,2,AnoF,25.0,Training,1,0.0,0.0,0.0,1.0,0.25,2.0,,2.0,,
s18,1,disease,2,AnoF,26.0,Training,1,1.0,0.0,0.0,0.0,0.75,2.0,,1.0,,
s18,1,disease,2,AnoF,27.0,Training,1,1.0,0.0,0.0,0.0,0.75,1.0,,1.0,,
s18,1,disease,2,AnoF,28.0,Training,1,1.0,1.0,0.0,0.0,1.0,1.0,,1.0,,
s18,1,disease,2,AnoF,29.0,Training,1,0.0,1.0,0.0,0.0,0.75,2.0,,1.0,,
s18,1,disease,2,AnoF,30.0,Training,1,0.0,0.0,1.0,1.0,0.0,2.0,,2.0,,
s18,1,disease,2,AnoF,31.0,Training,1,0.0,0.0,1.0,1.0,0.0,2.0,,2.0,,
s18,1,disease,2,AnoF,32.0,Training,1,0.0,0.0,0.0,1.0,0.25,2.0,,2.0,,
s18,1,disease,2,AnoF,33.0,Training,1,1.0,0.0,1.0,1.0,0.25,2.0,,2.0,,
s18,1,disease,2,AnoF,34.0,Training,1,1.0,0.0,1.0,0.0,0.5,1.0,,,,
s18,1,disease,2,AnoF,35.0,Training,1,1.0,0.0,0.0,1.0,0.5,2.0,,,,
s18,1,disease,2,AnoF,36.0,Training,1,1.0,0.0,1.0,0.0,0.5,1.0,,,,
s18,1,disease,2,AnoF,37.0,Training,1,1.0,0.0,0.0,1.0,0.5,1.0,,,,
s18,1,disease,2,AnoF,38.0,Training,1,0.0,0.0,0.0,1.0,0.25,2.0,,2.0,,
s18,1,disease,2,AnoF,39.0,Training,1,0.0,1.0,0.0,1.0,0.5,2.0,,,,
s18,1,disease,2,AnoF,40.0,Training,1,0.0,1.0,0.0,0.0,0.75,1.0,,1.0,,
s18,1,disease,2,AnoF,41.0,Training,1,0.0,0.0,1.0,0.0,0.25,1.0,,2.0,,
s18,1,disease,2,AnoF,42.0,Training,1,0.0,0.0,1.0,0.0,0.25,2.0,,2.0,,
s18,1,disease,2,AnoF,43.0,Training,1,0.0,1.0,1.0,1.0,0.25,2.0,,2.0,,
s18,1,disease,2,AnoF,44.0,Training,1,1.0,0.0,0.0,0.0,0.75,1.0,,1.0,,
s18,1,disease,2,AnoF,45.0,Training,1,0.0,1.0,0.0,0.0,0.75,1.0,,1.0,,
s18,1,disease,2,AnoF,46.0,Training,1,0.0,0.0,0.0,1.0,0.25,2.0,,2.0,,
s18,1,disease,2,AnoF,47.0,Training,1,1.0,0.0,1.0,0.0,0.5,1.0,,,,
s18,1,disease,2,AnoF,48.0,Training,1,0.0,0.0,1.0,0.0,0.25,1.0,,2.0,,
s18,1,disease,2,AnoF,49.0,Training,1,1.0,1.0,0.0,0.0,1.0,1.0,,1.0,,
s18,1,disease,2,AnoF,50.0,Training,1,1.0,1.0,1.0,0.0,0.75,1.0,,1.0,,
s18,1,disease,2,AnoF,51.0,Training,1,1.0,1.0,0.0,1.0,0.75,2.0,,1.0,,
s18,1,disease,2,AnoF,52.0,Training,1,0.0,0.0,1.0,0.0,0.25,1.0,,2.0,,
s18,1,disease,2,AnoF,53.0,Test,1,0.0,1.0,0.0,1.0,0.5,,2.0,,4.639,
s18,1,disease,2,AnoF,54.0,Test,1,1.0,1.0,0.0,0.0,1.0,,1.0,1.0,4.396,
s18,1,disease,2,AnoF,55.0,Test,1,1.0,1.0,1.0,0.0,0.75,,2.0,1.0,3.771,
s18,1,disease,2,AnoF,56.0,Test,1,0.0,0.0,1.0,0.0,0.25,,1.0,2.0,1.311,
s18,1,disease,2,AnoF,57.0,Test,1,1.0,0.0,1.0,1.0,0.25,,2.0,2.0,4.343,
s18,1,disease,2,AnoF,58.0,Test,1,1.0,1.0,0.0,1.0,0.75,,2.0,1.0,2.409,
s18,1,disease,2,AnoF,59.0,Test,1,0.0,0.0,1.0,1.0,0.0,,1.0,2.0,1.393,
s18,1,disease,2,AnoF,60.0,Test,1,0.0,1.0,1.0,0.0,0.5,,1.0,,1.574,
s18,1,disease,2,AnoF,61.0,Test,1,0.0,1.0,1.0,1.0,0.25,,1.0,2.0,1.804,
s18,1,disease,2,AnoF,62.0,Test,1,0.0,0.0,0.0,1.0,0.25,,2.0,2.0,1.062,
s18,1,disease,2,AnoF,63.0,Test,1,1.0,0.0,1.0,0.0,0.5,,2.0,,1.955,
s18,1,disease,2,AnoF,64.0,Test,1,0.0,1.0,0.0,0.0,0.75,,1.0,1.0,1.318,
s18,1,disease,2,AnoF,65.0,Test,1,1.0,0.0,0.0,1.0,0.5,,2.0,,2.462,
s18,1,disease,2,AnoF,66.0,Test,1,1.0,0.0,0.0,0.0,0.75,,2.0,1.0,2.142,
s18,1,weather,2,FnoA,1.0,Training,1,1.0,0.0,0.0,0.0,0.75,2.0,1.0,1.0,7.071,0.0
s18,1,weather,2,FnoA,2.0,Training,1,0.0,0.0,1.0,0.0,0.25,1.0,1.0,2.0,3.033,1.0
s18,1,weather,2,FnoA,3.0,Training,1,1.0,1.0,0.0,0.0,1.0,1.0,2.0,1.0,4.095,0.0
s18,1,weather,2,FnoA,4.0,Training,1,0.0,1.0,1.0,1.0,0.25,2.0,1.0,2.0,7.132,0.0
s18,1,weather,2,FnoA,5.0,Training,1,0.0,1.0,1.0,1.0,0.25,1.0,2.0,2.0,3.921,0.0
s18,1,weather,2,FnoA,6.0,Training,1,0.0,1.0,1.0,1.0,0.25,2.0,1.0,2.0,4.726,0.0
s18,1,weather,2,FnoA,7.0,Training,1,0.0,1.0,0.0,1.0,0.5,2.0,2.0,,4.426,1.0
s18,1,weather,2,FnoA,8.0,Training,1,0.0,0.0,1.0,1.0,0.0,2.0,1.0,2.0,4.221,0.0
s18,1,weather,2,FnoA,9.0,Training,1,1.0,1.0,0.0,1.0,0.75,1.0,2.0,1.0,3.54,0.0
s18,1,weather,2,FnoA,10.0,Training,1,0.0,1.0,0.0,1.0,0.5,1.0,1.0,,4.886,1.0
s18,1,weather,2,FnoA,11.0,Training,1,0.0,0.0,0.0,1.0,0.25,2.0,1.0,2.0,2.185,0.0
s18,1,weather,2,FnoA,12.0,Training,1,1.0,1.0,0.0,1.0,0.75,2.0,1.0,1.0,4.392,0.0
s18,1,weather,2,FnoA,13.0,Training,1,0.0,0.0,1.0,0.0,0.25,2.0,2.0,2.0,3.559,1.0
s18,1,weather,2,FnoA,14.0,Training,1,1.0,1.0,1.0,0.0,0.75,2.0,2.0,1.0,2.353,1.0
s18,1,weather,2,FnoA,15.0,Training,1,1.0,1.0,0.0,0.0,1.0,1.0,2.0,1.0,2.947,0.0
s18,1,weather,2,FnoA,16.0,Training,1,0.0,1.0,0.0,0.0,0.75,1.0,1.0,1.0,2.606,1.0
s18,1,weather,2,FnoA,17.0,Training,1,0.0,0.0,1.0,1.0,0.0,2.0,1.0,2.0,3.126,0.0
s18,1,weather,2,FnoA,18.0,Training,1,1.0,0.0,0.0,1.0,0.5,1.0,2.0,,4.371,0.0
s18,1,weather,2,FnoA,19.0,Training,1,0.0,0.0,0.0,1.0,0.25,2.0,1.0,2.0,3.037,0.0
s18,1,weather,2,FnoA,20.0,Training,1,1.0,0.0,1.0,1.0,0.25,1.0,2.0,2.0,4.06,0.0
s18,1,weather,2,FnoA,21.0,Training,1,0.0,1.0,0.0,1.0,0.5,1.0,2.0,,3.904,0.0
s18,1,weather,2,FnoA,22.0,Training,1,1.0,1.0,1.0,0.0,0.75,1.0,1.0,1.0,3.115,1.0
s18,1,weather,2,FnoA,23.0,Training,1,1.0,1.0,0.0,1.0,0.75,1.0,2.0,1.0,5.624,0.0
s18,1,weather,2,FnoA,24.0,Training,1,0.0,1.0,1.0,0.0,0.5,2.0,2.0,,2.976,1.0
s18,1,weather,2,FnoA,25.0,Training,1,1.0,0.0,1.0,1.0,0.25,2.0,1.0,2.0,3.654,0.0
s18,1,weather,2,FnoA,26.0,Training,1,0.0,1.0,1.0,0.0,0.5,2.0,2.0,,2.671,1.0
s18,1,weather,2,FnoA,27.0,Training,1,1.0,0.0,0.0,0.0,0.75,1.0,1.0,1.0,1.741,1.0
s18,1,weather,2,FnoA,28.0,Training,1,0.0,0.0,1.0,0.0,0.25,2.0,2.0,2.0,2.287,1.0
s18,1,weather,2,FnoA,29.0,Training,1,0.0,0.0,1.0,1.0,0.0,2.0,2.0,2.0,3.063,1.0
s18,1,weather,2,FnoA,30.0,Training,1,1.0,1.0,1.0,0.0,0.75,1.0,1.0,1.0,2.282,1.0
s18,1,weather,2,FnoA,31.0,Training,1,1.0,0.0,0.0,1.0,0.5,2.0,1.0,,2.673,0.0
s18,1,weather,2,FnoA,32.0,Training,1,1.0,0.0,0.0,0.0,0.75,1.0,1.0,1.0,2.676,1.0
s18,1,weather,2,FnoA,33.0,Training,1,0.0,1.0,0.0,0.0,0.75,2.0,2.0,1.0,2.281,1.0
s18,1,weather,2,FnoA,34.0,Training,1,0.0,0.0,0.0,1.0,0.25,1.0,1.0,2.0,2.511,1.0
s18,1,weather,2,FnoA,35.0,Training,1,1.0,0.0,1.0,0.0,0.5,2.0,2.0,,1.78,1.0
s18,1,weather,2,FnoA,36.0,Training,1,1.0,0.0,1.0,0.0,0.5,1.0,1.0,,3.34,1.0
s18,1,weather,2,FnoA,37.0,Training,1,1.0,0.0,0.0,1.0,0.5,2.0,2.0,,0.0,1.0
s18,1,weather,2,FnoA,38.0,Training,1,1.0,0.0,1.0,0.0,0.5,1.0,2.0,,3.684,0.0
s18,1,weather,2,FnoA,39.0,Training,1,1.0,1.0,0.0,0.0,1.0,1.0,2.0,1.0,3.797,0.0
s18,1,weather,2,FnoA,40.0,Training,1,1.0,1.0,1.0,0.0,0.75,1.0,1.0,1.0,1.456,1.0
s18,1,weather,2,FnoA,41.0,Training,1,0.0,1.0,0.0,0.0,0.75,1.0,2.0,1.0,3.622,0.0
s18,1,weather,2,FnoA,42.0,Training,1,1.0,1.0,0.0,1.0,0.75,1.0,1.0,1.0,4.264,1.0
s18,1,weather,2,FnoA,43.0,Training,1,0.0,0.0,1.0,1.0,0.0,2.0,2.0,2.0,1.088,1.0
s18,1,weather,2,FnoA,44.0,Training,1,0.0,1.0,0.0,1.0,0.5,2.0,2.0,,1.806,1.0
s18,1,weather,2,FnoA,45.0,Training,1,1.0,1.0,0.0,0.0,1.0,1.0,2.0,1.0,0.0,0.0
s18,1,weather,2,FnoA,46.0,Training,1,0.0,0.0,0.0,1.0,0.25,2.0,1.0,2.0,2.07,0.0
s18,1,weather,2,FnoA,47.0,Training,1,0.0,1.0,1.0,0.0,0.5,1.0,2.0,,3.534,0.0
s18,1,weather,2,FnoA,48.0,Training,1,0.0,1.0,1.0,0.0,0.5,1.0,2.0,,2.168,0.0
s18,1,weather,2,FnoA,49.0,Training,1,0.0,1.0,0.0,0.0,0.75,1.0,2.0,1.0,2.76,0.0
s18,1,weather,2,FnoA,50.0,Training,1,1.0,0.0,0.0,1.0,0.5,1.0,1.0,,1.902,1.0
s18,1,weather,2,FnoA,51.0,Training,1,1.0,0.0,0.0,0.0,0.75,1.0,1.0,1.0,2.24,1.0
s18,1,weather,2,FnoA,52.0,Training,1,1.0,0.0,1.0,1.0,0.25,2.0,1.0,2.0,1.071,0.0
s18,1,weather,2,FnoA,53.0,Training,0,0.0,1.0,1.0,1.0,0.25,2.0,,2.0,2.308,
s18,1,weather,2,FnoA,54.0,Training,0,1.0,0.0,1.0,1.0,0.25,2.0,,2.0,3.5,
s18,1,weather,2,FnoA,55.0,Training,0,1.0,0.0,1.0,0.0,0.5,2.0,,,2.277,
s18,1,weather,2,FnoA,56.0,Training,0,0.0,0.0,1.0,0.0,0.25,2.0,,2.0,1.921,
s18,1,weather,2,FnoA,57.0,Test,1,1.0,1.0,0.0,1.0,0.75,,1.0,1.0,3.839,
s18,1,weather,2,FnoA,58.0,Test,1,0.0,1.0,1.0,0.0,0.5,,2.0,,3.736,
s18,1,weather,2,FnoA,59.0,Test,1,0.0,0.0,1.0,0.0,0.25,,2.0,2.0,1.08,
s18,1,weather,2,FnoA,60.0,Test,1,1.0,0.0,0.0,0.0,0.75,,1.0,1.0,4.562,
s18,1,weather,2,FnoA,61.0,Test,1,1.0,0.0,1.0,1.0,0.25,,2.0,2.0,4.963,
s18,1,weather,2,FnoA,62.0,Test,1,0.0,1.0,1.0,1.0,0.25,,2.0,2.0,6.032,
s18,1,weather,2,FnoA,63.0,Test,1,1.0,1.0,0.0,0.0,1.0,,2.0,1.0,7.6,
s18,1,weather,2,FnoA,64.0,Test,1,0.0,1.0,0.0,0.0,0.75,,2.0,1.0,4.744,
s18,1,weather,2,FnoA,65.0,Test,1,0.0,1.0,0.0,1.0,0.5,,2.0,,6.418,
s18,1,weather,2,FnoA,66.0,Test,1,1.0,1.0,1.0,0.0,0.75,,2.0,1.0,2.671,
s18,1,weather,2,FnoA,67.0,Test,1,0.0,0.0,1.0,1.0,0.0,,1.0,2.0,5.159,
s18,1,weather,2,FnoA,68.0,Test,1,1.0,0.0,1.0,0.0,0.5,,2.0,,4.691,
s18,1,weather,2,FnoA,69.0,Test,1,1.0,0.0,0.0,1.0,0.5,,1.0,,2.429,
s18,1,weather,2,FnoA,70.0,Test,1,0.0,0.0,0.0,1.0,0.25,,2.0,2.0,5.797,
s19,2,disease,3,AnoF,1.0,Training,1,1.0,0.0,0.0,0.0,0.75,2.0,,1.0,,
s19,2,disease,3,AnoF,2.0,Training,1,0.0,0.0,1.0,1.0,0.0,2.0,,2.0,,
s19,2,disease,3,AnoF,3.0,Training,1,1.0,0.0,0.0,0.0,0.75,1.0,,1.0,,
s19,2,disease,3,AnoF,4.0,Training,1,0.0,0.0,1.0,0.0,0.25,1.0,,2.0,,
s19,2,disease,3,AnoF,5.0,Training,1,0.0,0.0,1.0,0.0,0.25,2.0,,2.0,,
s19,2,disease,3,AnoF,6.0,Training,1,0.0,0.0,1.0,0.0,0.25,1.0,,2.0,,
s19,2,disease,3,AnoF,7.0,Training,1,0.0,1.0,1.0,1.0,0.25,2.0,,2.0,,
s19,2,disease,3,AnoF,8.0,Training,1,0.0,0.0,0.0,1.0,0.25,2.0,,2.0,,
s19,2,disease,3,AnoF,9.0,Training,1,1.0,0.0,1.0,1.0,0.25,2.0,,2.0,,
s19,2,disease,3,AnoF,10.0,Training,1,0.0,0.0,1.0,0.0,0.25,2.0,,2.0,,
s19,2,disease,3,AnoF,11.0,Training,1,0.0,0.0,0.0,1.0,0.25,2.0,,2.0,,
s19,2,disease,3,AnoF,12.0,Training,1,1.0,1.0,0.0,1.0,0.75,1.0,,1.0,,
s19,2,disease,3,AnoF,13.0,Training,1,0.0,0.0,1.0,0.0,0.25,1.0,,2.0,,
s19,2,disease,3,AnoF,14.0,Training,1,1.0,0.0,0.0,1.0,0.5,2.0,,,,
s19,2,disease,3,AnoF,15.0,Training,1,1.0,0.0,0.0,0.0,0.75,1.0,,1.0,,
s19,2,disease,3,AnoF,16.0,Training,1,0.0,1.0,0.0,0.0,0.75,1.0,,1.0,,
s19,2,disease,3,AnoF,17.0,Training,1,0.0,0.0,0.0,1.0,0.25,2.0,,2.0,,
s19,2,disease,3,AnoF,18.0,Training,1,1.0,0.0,1.0,0.0,0.5,1.0,,,,
s19,2,disease,3,AnoF,19.0,Training,1,0.0,0.0,0.0,1.0,0.25,2.0,,2.0,,
s19,2,disease,3,AnoF,20.0,Training,1,0.0,1.0,0.0,0.0,0.75,2.0,,1.0,,
s19,2,disease,3,AnoF,21.0,Training,1,1.0,1.0,1.0,0.0,0.75,1.0,,1.0,,
s19,2,disease,3,AnoF,22.0,Training,1,1.0,0.0,1.0,1.0,0.25,1.0,,2.0,,
s19,2,disease,3,AnoF,23.0,Training,1,0.0,1.0,0.0,1.0,0.5,1.0,,,,
s19,2,disease,3,AnoF,24.0,Training,1,0.0,1.0,0.0,0.0,0.75,2.0,,1.0,,
s19,2,disease,3,AnoF,25.0,Training,1,1.0,0.0,0.0,0.0,0.75,1.0,,1.0,,
s19,2,disease,3,AnoF,26.0,Training,1,0.0,0.0,1.0,1.0,0.0,2.0,,2.0,,
s19,2,disease,3,AnoF,27.0,Training,1,0.0,0.0,0.0,1.0,0.25,1.0,,2.0,,
s19,2,disease,3,AnoF,28.0,Training,1,1.0,0.0,1.0,0.0,0.5,1.0,,,,
s19,2,disease,3,AnoF,29.0,Training,1,1.0,0.0,0.0,0.0,0.75,1.0,,1.0,,
